ACCELEROMETER X (m/s²),ACCELEROMETER Y (m/s²),ACCELEROMETER Z (m/s²),GRAVITY X (m/s²),GRAVITY Y (m/s²),GRAVITY Z (m/s²),GYROSCOPE X (rad/s),GYROSCOPE Y (rad/s),GYROSCOPE Z (rad/s),MAGNETIC FIELD X (μT),MAGNETIC FIELD Y (μT),MAGNETIC FIELD Z (μT),ORIENTATION Z (azimuth °),ORIENTATION X (pitch °),ORIENTATION Y (roll °),PROXIMITY (m),SOUND LEVEL (dB),LOCATION Latitude : ,LOCATION Longitude : ,LOCATION Altitude ( m),LOCATION Altitude-google ( m),LOCATION Speed ( m/s),LOCATION Accuracy ( m),LOCATION ORIENTATION (°),Satellites in range,Time since start in ms ,YYYY-MO-DD HH-MI-SS_SSS
-0.51015,2.26778,7.64557,-0.58306,1.15539,9.72088,-0.01261,0.13695,0.00868,-48.961,6.998,8.379,83.329,-6.766,3.433,5.0,39.4572,22.9999,120.21971,42.6,NaN,,21.6,,0 / 0,10,2021-01-13 15:15:15:029
-0.36405,2.02588,9.34847,-0.55538,1.01001,9.73868,-0.1791,-0.05759,0.03793,-50.515,7.703,6.209,82.264,-6.672,3.781,5.0,39.4572,22.9999,120.21971,42.6,NaN,,21.6,,0 / 0,109,2021-01-13 15:15:15:128
-0.29699,1.05587,11.2334,-0.41898,0.74027,9.76969,-0.38302,-0.20969,0.13363,-51.615,10.131,8.31,79.893,-4.329,2.456,5.0,39.4572,22.9999,120.21971,42.6,NaN,,21.6,,0 / 0,210,2021-01-13 15:15:15:229
0.4383,0.13616,13.0824,-0.12733,0.41127,9.79719,-0.24418,-0.26789,0.34569,-52.087,11.921,9.409,77.413,-2.404,0.745,5.0,41.1208,22.9999,120.21971,42.6,NaN,,21.6,,0 / 0,309,2021-01-13 15:15:15:328
-0.06706,0.05473,10.56517,0.23424,0.43593,9.79416,0.50666,-0.0698,0.20027,-50.481,14.945,9.44,73.604,-1.733,-0.469,5.0,41.1208,22.9999,120.21971,42.6,NaN,,21.6,,0 / 0,409,2021-01-13 15:15:15:428
-0.50536,1.12293,7.22164,0.077,1.16187,9.73728,1.44686,0.21428,0.15525,-47.104,16.089,8.658,72.473,-6.804,-0.453,5.0,41.1208,22.9999,120.21971,42.6,NaN,,21.6,,0 / 0,509,2021-01-13 15:15:15:528
-0.71134,2.0642,6.04805,0.13502,2.28696,9.5353,0.27633,0.07883,0.0201,-47.709,17.132,5.93,72.358,-13.486,-0.811,5.0,42.7969,22.9999,120.21971,42.6,NaN,,21.6,,0 / 0,609,2021-01-13 15:15:15:628
-0.26106,2.39233,7.06596,-0.01559,2.07185,9.58528,-0.30179,0.16615,0.21439,-46.719,17.96,5.652,71.057,-13.582,-0.278,5.0,42.7969,22.9999,120.21971,42.6,NaN,,21.6,,0 / 0,709,2021-01-13 15:15:15:728
-0.25867,1.01037,11.88247,-0.04126,1.62595,9.67083,-0.94082,-0.03365,-0.00529,-45.872,19.464,5.774,68.933,-9.544,0.244,5.0,42.7969,22.9999,120.21971,42.6,NaN,,21.6,,0 / 0,811,2021-01-13 15:15:15:830
-0.05269,1.48938,12.58662,0.04313,0.8431,9.77025,-0.41892,-0.10665,-0.01731,-43.855,20.01,5.069,66.094,-4.932,-0.253,5.0,40.1014,22.9999,120.21971,42.6,NaN,,21.6,,0 / 0,909,2021-01-13 15:15:15:928
1.02988,-1.0015,13.98535,0.16499,0.5475,9.78996,-0.50288,-0.17875,-0.22288,-43.058,19.545,5.536,65.63,-4.46,-0.487,5.0,40.1014,22.9999,120.21971,42.6,NaN,,21.6,,0 / 0,1009,2021-01-13 15:15:16:028
0.94127,0.5553,8.42397,0.11574,0.42895,9.79658,0.36497,0.16895,-0.29865,-42.022,19.44,4.357,65.876,-2.507,-0.677,5.0,40.1014,22.9999,120.21971,42.6,NaN,,21.6,,0 / 0,1109,2021-01-13 15:15:16:128
0.36645,0.9912,8.21081,0.16111,1.49245,9.69108,0.38207,0.2769,-0.31038,-41.973,16.302,3.914,69.997,-8.754,-0.952,5.0,38.9128,22.9999,120.21971,42.6,NaN,,21.6,,0 / 0,1209,2021-01-13 15:15:16:228
0.13652,2.37556,4.52239,-0.20289,2.161,9.56344,0.72172,0.3036,-0.21088,-40.644,14.645,0.324,70.289,-10.058,0.651,5.0,38.9128,22.9999,120.21971,42.6,NaN,,21.6,,0 / 0,1309,2021-01-13 15:15:16:328
0.25627,1.32652,9.77001,-0.07537,2.16643,9.56406,-1.25654,-0.06014,-0.00153,-39.588,15.349,0.638,70.275,-12.763,0.452,5.0,38.9128,22.9999,120.21971,42.6,NaN,,21.6,,0 / 0,1409,2021-01-13 15:15:16:428
0.20837,1.02234,13.28598,0.05317,0.79082,9.77457,-1.02797,-0.15114,0.03902,-39.735,15.84,1.32,68.343,-4.625,-0.312,5.0,38.9128,22.9999,120.21971,42.6,NaN,,21.6,,0 / 0,1509,2021-01-13 15:15:16:528
1.24305,0.7493,13.30994,0.07765,0.68081,9.78268,-0.00341,-0.00852,0.16878,-40.047,16.104,-0.396,68.192,-3.606,-0.804,5.0,40.9521,22.9999,120.21971,42.6,NaN,,21.6,,0 / 0,1609,2021-01-13 15:15:16:628
-0.28981,0.27029,9.91611,0.26969,0.52696,9.78877,-0.0532,-0.23329,-0.22804,-38.408,14.542,0.729,68.491,-3.08,-1.578,5.0,40.9521,22.9999,120.21971,42.6,NaN,,21.6,,0 / 0,1709,2021-01-13 15:15:16:728
-0.50776,0.30621,8.76886,0.2333,1.39492,9.70413,0.77017,0.00915,0.07817,-36.734,14.351,-0.158,69.29,-8.178,-1.377,5.0,40.9521,22.9999,120.21971,42.6,NaN,,21.6,,0 / 0,1809,2021-01-13 15:15:16:828
-0.48141,2.03785,5.878,0.15619,2.29987,9.53187,0.89755,0.10382,0.24251,-35.352,14.018,-0.683,68.058,-10.748,-1.286,5.0,39.4395,22.9999,120.21971,42.6,NaN,,21.6,,0 / 0,1911,2021-01-13 15:15:16:930
-0.11496,2.34442,6.57497,-0.04137,2.46647,9.49132,-0.09356,0.24832,0.08912,-34.754,12.351,-1.296,71.331,-14.567,0.25,5.0,39.4395,22.9999,120.21971,42.6,NaN,,21.6,,0 / 0,2009,2021-01-13 15:15:17:028
-0.33052,1.81511,9.9209,-0.26011,2.20078,9.55297,-0.38961,0.14318,-0.06292,-34.159,13.885,-4.228,67.2,-12.969,1.56,5.0,39.4395,22.9999,120.21971,42.6,NaN,,21.6,,0 / 0,2110,2021-01-13 15:15:17:129
-0.91971,1.88457,12.9842,-0.07681,1.65816,9.66514,-0.59338,-0.1445,-0.09704,-34.801,10.13,-3.104,73.674,-11.421,1.067,5.0,40.4256,22.9999,120.21971,42.6,NaN,,21.6,,0 / 0,2210,2021-01-13 15:15:17:229
0.13412,0.21999,12.96265,-0.04034,1.1651,9.73711,-0.88168,-0.1759,-0.01539,-34.15,11.931,-2.91,70.186,-6.823,0.237,5.0,40.4256,22.9999,120.21971,42.6,NaN,,21.6,,0 / 0,2309,2021-01-13 15:15:17:328
1.20472,1.60195,8.73533,-0.03276,1.50308,9.69072,1.0268,0.0411,-0.03194,-34.558,9.725,-4.602,73.113,-8.817,0.194,5.0,40.4256,22.9999,120.21971,42.6,NaN,,21.6,,0 / 0,2409,2021-01-13 15:15:17:428
-0.69218,1.76242,6.86717,-0.11518,2.24076,9.54652,0.53284,0.02631,-0.42401,-34.177,9.541,-2.713,73.046,-11.527,0.247,5.0,39.7208,22.9999,120.21971,42.6,NaN,,21.6,,0 / 0,2512,2021-01-13 15:15:17:531
0.09341,2.37556,5.49958,-0.21427,2.50323,9.47936,0.25144,0.07535,0.02832,-32.452,5.904,-4.141,78.311,-14.789,1.295,5.0,39.7208,22.9999,120.21971,42.6,NaN,,21.6,,0 / 0,2610,2021-01-13 15:15:17:629
0.55087,2.0666,9.87779,-0.34065,2.43109,9.49443,-0.43137,0.1882,0.15164,-32.498,5.332,-4.859,79.779,-14.353,2.055,5.0,39.7208,22.9999,120.21971,42.6,NaN,,21.6,,0 / 0,2710,2021-01-13 15:15:17:729
-0.42153,2.51208,11.49207,-0.13812,1.71137,9.65518,-0.49223,-0.10934,0.21428,-32.696,6.23,-3.576,78.879,-11.671,1.539,5.0,39.7208,22.9999,120.21971,42.6,NaN,,21.6,,0 / 0,2811,2021-01-13 15:15:17:830
0.35926,-0.29016,15.57808,-0.10972,1.32249,9.71645,-0.95328,-0.10802,0.1965,-33.11,7.419,-5.893,76.9,-7.75,0.647,5.0,39.2509,22.9999,120.21971,42.6,NaN,,21.6,,0 / 0,2909,2021-01-13 15:15:17:928
-0.16766,1.0439,8.6036,0.09962,0.89091,9.76559,1.05637,0.09206,0.14201,-32.413,5.893,-5.777,78.41,-5.212,-0.584,5.0,39.2509,22.9999,120.21971,42.6,NaN,,21.6,,0 / 0,3009,2021-01-13 15:15:18:028
-0.72092,0.78283,7.64078,0.1896,1.88898,9.62113,0.74682,-0.23224,-0.20001,-31.848,4.309,-5.064,81.473,-8.98,-0.66,5.0,39.2509,22.9999,120.21971,42.6,NaN,,21.6,,0 / 0,3109,2021-01-13 15:15:18:128
-1.09455,1.32652,6.43845,0.10087,2.13369,9.57118,0.2355,0.2751,0.05377,-31.827,2.999,-4.337,83.092,-12.567,-0.604,5.0,41.8615,22.9999,120.21971,42.6,NaN,,21.6,,0 / 0,3208,2021-01-13 15:15:18:227
-0.14131,2.22467,7.53061,-0.12615,2.25113,9.54395,-0.02636,0.12957,0.26775,-31.737,4.37,-6.636,80.443,-13.271,0.757,5.0,41.8615,22.9999,120.21971,42.6,NaN,,21.6,,0 / 0,3310,2021-01-13 15:15:18:329
-0.30657,1.92768,11.16155,-0.05622,1.50504,9.69031,-0.74168,-0.05531,-0.01096,-31.736,5.571,-6.908,77.317,-11.729,0.687,5.0,41.8615,22.9999,120.21971,42.6,NaN,,21.6,,0 / 0,3409,2021-01-13 15:15:18:428
0.5844,0.52895,13.06324,-0.02077,1.36133,9.71168,-0.28553,-0.17065,-0.12302,-33.737,3.885,-4.864,82.223,-7.979,0.123,5.0,39.4832,22.9999,120.21971,42.6,NaN,,21.6,,0 / 0,3509,2021-01-13 15:15:18:528
0.80714,-0.83864,14.76135,0.29515,0.62397,9.78233,-0.25092,-0.18507,-0.17973,-31.662,2.569,-4.848,83.951,-3.648,-1.728,5.0,39.4832,22.9999,120.21971,42.6,NaN,,21.6,,0 / 0,3610,2021-01-13 15:15:18:629
0.96043,0.73254,9.0443,0.10947,1.38235,9.70812,1.05828,0.29252,0.08113,-30.443,1.658,-4.796,85.324,-4.518,-1.361,5.0,39.4832,22.9999,120.21971,42.6,NaN,,21.6,,0 / 0,3709,2021-01-13 15:15:18:728
-0.31136,1.27861,5.83968,-0.08379,1.72419,9.65352,0.68235,0.39391,-0.34878,-31.004,-1.384,-6.22,89.957,-10.126,0.497,5.0,39.3472,22.9999,120.21971,42.6,NaN,,21.6,,0 / 0,3809,2021-01-13 15:15:18:828
-0.50297,3.05576,5.64568,-0.46482,2.33008,9.51447,0.35596,0.16735,-0.14511,-28.959,-0.652,-5.065,90.237,-13.745,2.797,5.0,39.3472,22.9999,120.21971,42.6,NaN,,21.6,,0 / 0,3909,2021-01-13 15:15:18:928
0.36645,1.49178,8.62276,-0.59115,1.85254,9.61192,-0.87566,-0.07001,0.08041,-30.197,-0.994,-6.324,90.003,-13.277,3.36,5.0,39.3472,22.9999,120.21971,42.6,NaN,,21.6,,0 / 0,4009,2021-01-13 15:15:19:028
-0.88858,1.91571,14.79488,-0.38537,1.21122,9.72393,-1.14255,-0.2343,0.07744,-31.538,-1.436,-7.195,90.506,-7.095,2.27,5.0,39.3472,22.9999,120.21971,42.6,NaN,,21.6,,0 / 0,4110,2021-01-13 15:15:19:129
1.24065,1.01516,14.96254,-0.27183,0.84429,9.76646,0.05991,-0.22758,0.46403,-32.339,-0.857,-5.962,90.992,-4.939,1.594,5.0,39.1869,22.9999,120.21971,42.6,NaN,,21.6,,0 / 0,4210,2021-01-13 15:15:19:229
-1.35801,0.81157,6.63964,-0.03982,1.55257,9.68289,0.82853,-0.13036,0.06795,-32.976,0.879,-5.484,87.541,-5.291,0.698,5.0,39.1869,22.9999,120.21971,42.6,NaN,,21.6,,0 / 0,4309,2021-01-13 15:15:19:328
-0.63709,0.87864,7.60964,0.06735,2.08138,9.58299,0.06015,0.06663,0.20269,-32.615,-0.971,-4.132,90.137,-12.254,-0.403,5.0,39.1869,22.9999,120.21971,42.6,NaN,,21.6,,0 / 0,4408,2021-01-13 15:15:19:427
-0.91013,2.2606,5.58101,-0.09533,2.20271,9.55559,0.24421,0.24799,0.23557,-31.985,-0.522,-6.371,89.461,-12.98,0.572,5.0,40.5866,22.9999,120.21971,42.6,NaN,,21.6,,0 / 0,4509,2021-01-13 15:15:19:528
0.09341,2.15761,9.31734,-0.31589,1.95281,9.60506,-0.87729,0.26535,0.19668,-33.029,0.52,-3.816,86.959,-13.509,1.11,5.0,40.5866,22.9999,120.21971,42.6,NaN,,21.6,,0 / 0,4609,2021-01-13 15:15:19:628
-0.46944,1.23311,12.14113,-0.48511,1.25164,9.71434,-1.11296,0.1969,-0.08476,-31.747,0.443,-7.148,88.779,-7.333,2.859,5.0,40.5866,22.9999,120.21971,42.6,NaN,,21.6,,0 / 0,4709,2021-01-13 15:15:19:728
0.63709,0.55769,13.76021,-0.32352,0.93954,9.75618,-0.04443,-0.12609,-0.19751,-30.965,-0.817,-6.861,90.777,-5.498,1.899,5.0,41.0952,22.9999,120.21971,42.6,NaN,,21.6,,0 / 0,4809,2021-01-13 15:15:19:828
-0.51494,-0.25424,11.2334,-0.27345,0.72012,9.77635,-0.3338,-0.05704,-0.28668,-34.055,-2.529,-5.558,94.337,-4.477,1.439,5.0,41.0952,22.9999,120.21971,42.6,NaN,,21.6,,0 / 0,4909,2021-01-13 15:15:19:928
0.02874,0.75888,9.02993,-0.11025,1.3638,9.71073,0.80338,-0.32162,-0.47398,-32.225,-4.79,-4.671,97.652,-7.994,0.65,5.0,41.0952,22.9999,120.21971,42.6,NaN,,21.6,,0 / 0,5009,2021-01-13 15:15:20:028
-0.49339,2.0666,4.81219,-0.12181,2.29064,9.5346,0.91532,0.18439,-0.42608,-30.137,-6.298,-2.177,100.301,-13.508,0.732,5.0,40.6707,22.9999,120.21971,42.6,NaN,,21.6,,0 / 0,5109,2021-01-13 15:15:20:128
-0.67062,2.05222,7.05638,-0.41551,2.56608,9.45584,-0.49997,0.27436,-0.04951,-29.763,-9.211,-1.888,105.497,-16.025,1.604,5.0,40.6707,22.9999,120.21971,42.6,NaN,,21.6,,0 / 0,5209,2021-01-13 15:15:20:228
-0.05269,1.63548,10.58912,-0.53128,2.12545,9.5588,-0.81427,0.00368,0.20103,-29.801,-8.835,-2.276,106.164,-12.517,3.181,5.0,40.6707,22.9999,120.21971,42.6,NaN,,21.6,,0 / 0,5309,2021-01-13 15:15:20:328
0.26585,2.3085,13.72668,-0.20237,1.48252,9.69183,-0.25247,0.0502,0.61326,-33.198,-5.554,-5.045,99.063,-8.695,1.196,5.0,40.6707,22.9999,120.21971,42.6,NaN,,21.6,,0 / 0,5409,2021-01-13 15:15:20:428
0.27304,1.01516,12.25849,0.02195,1.27461,9.72344,-0.2442,-0.20915,0.46316,-33.965,-3.973,-3.901,95.886,-7.852,1.191,5.0,39.2242,22.9999,120.21971,42.6,NaN,,21.6,,0 / 0,5509,2021-01-13 15:15:20:528
-0.15808,1.89175,8.07189,0.22243,1.72316,9.65151,0.92865,-0.03677,0.15675,-33.017,-5.05,-2.44,97.671,-10.12,-1.32,5.0,39.2242,22.9999,120.21971,42.6,NaN,,21.6,,0 / 0,5609,2021-01-13 15:15:20:628
-0.91013,1.66183,6.43605,0.25823,2.46036,9.48949,0.37491,-0.04463,-0.17827,-33.585,-3.822,-1.583,95.284,-14.53,-1.559,5.0,39.2242,22.9999,120.21971,42.6,NaN,,21.6,,0 / 0,5709,2021-01-13 15:15:20:728
-0.6347,2.83063,6.93902,0.03709,2.67138,9.43572,-0.13311,0.13979,0.05564,-34.055,-6.393,-2.111,98.57,-15.622,-0.755,5.0,40.6849,22.9999,120.21971,42.6,NaN,,21.6,,0 / 0,5809,2021-01-13 15:15:20:828
-0.30897,2.70129,8.85509,-0.05022,2.44755,9.49618,-0.4955,0.0604,-0.08419,-34.11,-4.54,-1.226,97.765,-14.453,0.303,5.0,40.6849,22.9999,120.21971,42.6,NaN,,21.6,,0 / 0,5909,2021-01-13 15:15:20:928
-0.4862,2.37077,11.50884,-0.03321,1.92597,9.61561,-0.59575,0.07722,-0.13016,-32.029,-6.307,-4.157,99.085,-11.326,0.198,5.0,40.6849,22.9999,120.21971,42.6,NaN,,21.6,,0 / 0,6009,2021-01-13 15:15:21:028
0.05509,1.27622,13.65722,-0.04593,1.55906,9.68182,-0.20836,-0.03532,-0.06363,-33.163,-5.664,-4.268,99.137,-9.489,0.582,5.0,40.0511,22.9999,120.21971,42.6,NaN,,21.6,,0 / 0,6109,2021-01-13 15:15:21:128
0.43351,0.87864,10.04544,0.13925,1.46729,9.69526,0.37212,0.13874,-0.0602,-33.69,-6.795,-2.068,100.913,-8.605,-0.823,5.0,40.0511,22.9999,120.21971,42.6,NaN,,21.6,,0 / 0,6209,2021-01-13 15:15:21:228
0.6802,1.76003,7.4827,0.03291,2.17298,9.56282,0.90659,0.02985,0.01524,-33.284,-7.513,-2.001,102.531,-12.802,-0.197,5.0,40.0511,22.9999,120.21971,42.6,NaN,,21.6,,0 / 0,6310,2021-01-13 15:15:21:329
-0.22274,2.38275,5.72232,-0.04476,2.58688,9.4592,0.15384,0.1223,-0.2502,-34.477,-9.455,-1.407,103.895,-14.594,-0.324,5.0,39.5817,22.9999,120.21971,42.6,NaN,,21.6,,0 / 0,6409,2021-01-13 15:15:21:428
-0.02395,2.65339,7.03722,-0.07763,2.59842,9.45582,-0.18473,-0.07714,-0.09556,-34.509,-10.146,-2.67,104.295,-15.365,0.47,5.0,39.5817,22.9999,120.21971,42.6,NaN,,21.6,,0 / 0,6510,2021-01-13 15:15:21:529
0.02635,2.2103,11.39147,-0.00946,1.79926,9.64018,-0.71584,0.03482,0.12035,-35.392,-9.58,-3.25,104.858,-10.572,0.056,5.0,39.5817,22.9999,120.21971,42.6,NaN,,21.6,,0 / 0,6609,2021-01-13 15:15:21:628
-0.36166,2.68213,11.54716,-0.05465,1.37884,9.70908,-0.27833,0.07612,0.22882,-36.134,-9.65,-3.202,104.69,-8.716,0.096,5.0,39.5817,22.9999,120.21971,42.6,NaN,,21.6,,0 / 0,6709,2021-01-13 15:15:21:728
-0.50297,-0.11053,13.0345,-0.0432,1.15573,9.73821,-0.40746,-0.31575,-0.13952,-34.437,-7.658,-4.61,102.227,-6.768,0.254,5.0,39.746,22.9999,120.21971,42.6,NaN,,21.6,,0 / 0,6809,2021-01-13 15:15:21:828
-0.27783,1.35765,8.81676,0.25793,1.54721,9.68039,1.17607,-0.19034,0.27294,-35.99,-9.487,-4.793,102.498,-9.078,-1.526,5.0,39.746,22.9999,120.21971,42.6,NaN,,21.6,,0 / 0,6909,2021-01-13 15:15:21:928
-0.40716,1.29059,6.72107,0.4775,2.2029,9.54409,0.55362,-0.04192,0.01792,-35.248,-9.622,-0.163,105.206,-11.565,-2.385,5.0,39.746,22.9999,120.21971,42.6,NaN,,21.6,,0 / 0,7009,2021-01-13 15:15:22:028
-0.65625,2.82584,5.06607,0.3283,2.59421,9.4516,0.60427,0.44164,0.23656,-34.549,-9.967,-0.366,104.923,-15.339,-1.989,5.0,40.0647,22.9999,120.21971,42.6,NaN,,21.6,,0 / 0,7109,2021-01-13 15:15:22:128
-0.23472,2.3085,10.20831,-0.0308,2.37665,9.51425,-0.79459,0.1042,0.06554,-36.51,-9.531,-3.613,103.318,-14.025,0.186,5.0,40.0647,22.9999,120.21971,42.6,NaN,,21.6,,0 / 0,7209,2021-01-13 15:15:22:228
-0.39279,2.31568,11.64535,0.07767,1.73156,9.65226,-0.47564,-0.1922,-0.10416,-39.138,-8.45,-3.182,100.513,-11.487,-0.038,5.0,40.0647,22.9999,120.21971,42.6,NaN,,21.6,,0 / 0,7309,2021-01-13 15:15:22:328
1.20233,0.88343,13.47998,-0.02973,1.51558,9.68878,-0.41151,0.23869,-0.03855,-38.875,-9.06,-4.335,102.0,-8.891,0.176,5.0,40.2834,22.9999,120.21971,42.6,NaN,,21.6,,0 / 0,7409,2021-01-13 15:15:22:428
0.26346,0.30861,11.25975,-0.17687,1.2639,9.72325,0.10797,-0.01941,-0.30048,-39.77,-9.338,-4.02,101.982,-7.405,1.042,5.0,40.2834,22.9999,120.21971,42.6,NaN,,21.6,,0 / 0,7509,2021-01-13 15:15:22:528
0.22753,1.79595,6.69472,-0.00624,2.12759,9.57307,0.70612,0.02033,-0.30224,-37.007,-12.329,-1.493,107.511,-10.049,0.298,5.0,40.2834,22.9999,120.21971,42.6,NaN,,21.6,,0 / 0,7609,2021-01-13 15:15:22:628
-0.66583,2.39472,5.5858,-0.18626,2.4714,9.4883,0.46508,0.26407,-0.35554,-37.577,-13.653,-2.192,109.184,-14.597,1.125,5.0,40.6142,22.9999,120.21971,42.6,NaN,,21.6,,0 / 0,7710,2021-01-13 15:15:22:729
0.48141,2.05941,8.7042,-0.4517,2.39634,9.49863,-0.59082,0.00698,0.0254,-39.924,-15.77,-1.662,111.146,-14.144,2.723,5.0,40.6142,22.9999,120.21971,42.6,NaN,,21.6,,0 / 0,7809,2021-01-13 15:15:22:828
-0.3425,1.72889,11.84175,-0.30921,1.64387,9.66294,-0.73839,-0.08425,0.12286,-39.213,-13.387,-1.944,107.946,-11.688,2.333,5.0,40.6142,22.9999,120.21971,42.6,NaN,,21.6,,0 / 0,7909,2021-01-13 15:15:22:928
0.88139,2.81865,13.75302,-0.0931,1.74194,9.65025,-0.19829,0.19546,0.56226,-41.937,-12.619,-1.734,106.58,-10.232,0.553,5.0,40.6142,22.9999,120.21971,42.6,NaN,,21.6,,0 / 0,8008,2021-01-13 15:15:23:027
-0.17005,0.66068,12.42854,-0.08443,1.36387,9.71098,-0.40321,-0.13437,0.00891,-43.676,-12.978,-1.032,106.203,-7.994,0.498,5.0,40.175,22.9999,120.21971,42.6,NaN,,21.6,,0 / 0,8112,2021-01-13 15:15:23:131
-0.34729,1.9181,7.96891,0.14422,2.39068,9.50969,0.88074,-0.19858,0.08332,-44.981,-13.167,3.1,106.445,-10.282,-0.287,5.0,40.175,22.9999,120.21971,42.6,NaN,,21.6,,0 / 0,8210,2021-01-13 15:15:23:229
-0.45507,1.57321,7.4348,0.17971,2.62933,9.44588,0.27804,0.02332,-0.10526,-45.188,-13.544,3.449,107.336,-15.552,-1.09,5.0,40.175,22.9999,120.21971,42.6,NaN,,21.6,,0 / 0,8309,2021-01-13 15:15:23:328
-0.31136,3.02942,6.41929,-0.0472,2.82398,9.39113,-0.10662,0.2556,0.10385,-47.44,-14.38,3.144,106.971,-16.736,0.288,5.0,41.2482,22.9999,120.21971,42.6,NaN,,21.6,,0 / 0,8409,2021-01-13 15:15:23:428
-0.99156,2.18635,10.58194,-0.24486,2.29527,9.53112,-0.63733,0.13972,-0.11575,-49.789,-11.972,1.24,103.629,-15.889,1.255,5.0,41.2482,22.9999,120.21971,42.6,NaN,,21.6,,0 / 0,8509,2021-01-13 15:15:23:528
-0.72331,2.97912,12.20341,-0.12594,2.03852,9.59161,-0.34005,0.11892,0.14007,-49.448,-11.563,0.728,103.853,-11.998,0.752,5.0,41.2482,22.9999,120.21971,42.6,NaN,,21.6,,0 / 0,8609,2021-01-13 15:15:23:628
1.37478,0.92414,13.377,-0.26179,1.69328,9.65581,-0.31206,0.08785,0.08652,-53.052,-9.758,-0.561,100.605,-9.943,1.553,5.0,43.2364,22.9999,120.21971,42.6,NaN,,21.6,,0 / 0,8709,2021-01-13 15:15:23:728
0.79756,1.80793,8.57486,-0.29049,1.86137,9.624,0.89236,0.02284,-0.08154,-52.969,-10.691,-0.185,101.758,-8.895,1.134,5.0,43.2364,22.9999,120.21971,42.6,NaN,,21.6,,0 / 0,8808,2021-01-13 15:15:23:827
0.09341,1.61393,7.74616,-0.13562,2.36277,9.51679,0.61266,-0.24638,-0.34206,-54.293,-9.984,1.149,100.63,-13.942,0.816,5.0,43.2364,22.9999,120.21971,42.6,NaN,,21.6,,0 / 0,8910,2021-01-13 15:15:23:929
-0.57721,2.46657,6.2205,-0.33383,2.58641,9.45354,0.06329,0.0709,-0.46164,-55.755,-12.329,0.949,102.462,-15.292,2.022,5.0,43.2364,22.9999,120.21971,42.6,NaN,,21.6,,0 / 0,9009,2021-01-13 15:15:24:028
0.0,2.25581,8.218,-0.51109,2.27433,9.52558,-0.41592,0.10907,-0.17696,-57.681,-12.685,0.752,103.108,-15.143,2.542,5.0,40.3147,22.9999,120.21971,42.6,NaN,,21.6,,0 / 0,9112,2021-01-13 15:15:24:131
-0.03114,2.51208,13.38658,-0.39994,1.82852,9.62637,-0.3081,-0.55828,0.08369,-59.947,-8.077,-0.265,97.905,-10.746,2.379,5.0,40.3147,22.9999,120.21971,42.6,NaN,,21.6,,0 / 0,9209,2021-01-13 15:15:24:228
0.70894,1.44387,14.17216,0.11296,1.52012,9.68746,-0.25615,-0.21165,0.24043,-62.542,-5.423,-0.722,94.241,-8.917,-0.668,5.0,40.3147,22.9999,120.21971,42.6,NaN,,21.6,,0 / 0,9309,2021-01-13 15:15:24:328
-0.20358,1.78637,8.17249,0.25503,1.70354,9.65419,0.92457,0.05798,0.07881,-63.61,-1.868,1.663,91.854,-8.199,-1.208,5.0,40.9941,22.9999,120.21971,42.6,NaN,,21.6,,0 / 0,9409,2021-01-13 15:15:24:428
0.08862,0.98641,8.47906,0.3083,2.30436,9.52708,0.80932,-0.21459,0.10597,-62.467,0.887,1.351,88.883,-13.59,-1.853,5.0,40.9941,22.9999,120.21971,42.6,NaN,,21.6,,0 / 0,9509,2021-01-13 15:15:24:528
-1.36041,1.93487,5.47563,0.25935,2.67816,9.4303,0.43552,0.32733,0.01635,-60.739,2.543,0.697,87.118,-15.849,-1.575,5.0,40.9941,22.9999,120.21971,42.6,NaN,,21.6,,0 / 0,9609,2021-01-13 15:15:24:628
-0.33052,3.14438,6.86956,0.03103,2.89418,9.3698,0.075,0.20623,0.38589,-61.169,3.842,-0.86,86.009,-17.391,-0.438,5.0,41.0364,22.9999,120.21971,42.6,NaN,,21.6,,0 / 0,9709,2021-01-13 15:15:24:728
0.57961,3.26653,11.15676,-0.00791,2.61296,9.45213,-0.68353,-0.04234,0.19202,-59.929,10.055,-5.028,79.651,-15.453,0.048,5.0,41.0364,22.9999,120.21971,42.6,NaN,,21.6,,0 / 0,9809,2021-01-13 15:15:24:828
0.10538,2.88092,12.08365,0.12848,1.98058,9.60371,-0.42597,-0.13123,-0.00145,-57.951,12.088,-3.105,77.814,-11.652,-0.766,5.0,41.0364,22.9999,120.21971,42.6,NaN,,21.6,,0 / 0,9909,2021-01-13 15:15:24:928
0.74247,0.29184,12.73512,0.39144,1.74588,9.64205,-0.31461,-0.30244,-0.2273,-56.979,13.082,-3.966,76.367,-11.301,-1.366,5.0,41.1046,22.9999,120.21971,42.6,NaN,,21.6,,0 / 0,10009,2021-01-13 15:15:25:028
0.94606,1.70254,7.74856,0.35952,1.74371,9.64368,0.4728,0.25854,0.02812,-54.389,13.389,-3.069,75.743,-10.242,-2.135,5.0,41.1046,22.9999,120.21971,42.6,NaN,,21.6,,0 / 0,10109,2021-01-13 15:15:25:128
0.08143,2.0666,7.39409,0.1839,2.36165,9.51626,0.1127,0.16302,-0.18782,-52.486,12.375,-7.557,75.077,-13.935,-1.107,5.0,41.1046,22.9999,120.21971,42.6,NaN,,21.6,,0 / 0,10209,2021-01-13 15:15:25:228
0.25627,2.12887,6.61808,0.05307,2.40901,9.50601,0.02791,0.05789,-0.09019,-49.83,12.141,-6.983,74.922,-14.149,-0.498,5.0,40.078,22.9999,120.21971,42.6,NaN,,21.6,,0 / 0,10310,2021-01-13 15:15:25:329
0.38082,1.48699,10.91965,0.13975,2.07573,9.58343,-0.81474,0.07858,0.14245,-49.195,12.877,-8.063,73.423,-12.22,-0.835,5.0,40.078,22.9999,120.21971,42.6,NaN,,21.6,,0 / 0,10409,2021-01-13 15:15:25:428
1.13048,1.73847,11.67649,0.21602,1.47608,9.69252,-0.13835,-0.13763,0.37163,-48.537,14.923,-8.889,71.475,-8.657,-1.277,5.0,40.078,22.9999,120.21971,42.6,NaN,,21.6,,0 / 0,10509,2021-01-13 15:15:25:528
0.79517,1.35526,13.32909,0.22391,1.41121,9.702,-0.1658,0.12987,0.22116,-45.356,16.021,-10.327,68.588,-8.471,-1.845,5.0,40.078,22.9999,120.21971,42.6,NaN,,21.6,,0 / 0,10609,2021-01-13 15:15:25:628
-0.03832,1.2379,10.20351,0.24195,1.28675,9.71885,0.11021,-0.02839,0.00234,-44.475,15.121,-9.247,69.693,-7.54,-1.426,5.0,40.9805,22.9999,120.21971,42.6,NaN,,21.6,,0 / 0,10709,2021-01-13 15:15:25:728
-0.15329,1.29298,8.67306,0.333,2.10044,9.57328,0.5328,-0.04005,-0.08794,-43.301,14.113,-10.706,68.999,-12.368,-1.992,5.0,40.9805,22.9999,120.21971,42.6,NaN,,21.6,,0 / 0,10809,2021-01-13 15:15:25:828
-0.50536,2.04504,5.38461,0.22686,2.72858,9.41668,0.618,0.07245,-0.12795,-43.075,12.878,-10.422,70.186,-14.028,-1.837,5.0,40.9805,22.9999,120.21971,42.6,NaN,,21.6,,0 / 0,10908,2021-01-13 15:15:25:927
-0.07425,2.85697,7.54498,0.03659,2.87613,9.37534,-0.52316,0.18184,0.07976,-41.366,11.152,-12.231,71.023,-17.055,-0.224,5.0,40.6212,22.9999,120.21971,42.6,NaN,,21.6,,0 / 0,11009,2021-01-13 15:15:26:028
-0.41435,2.57914,10.63702,-0.06306,2.16768,9.56387,-0.77671,-0.07479,-0.16996,-42.185,12.072,-14.498,70.705,-12.77,0.378,5.0,40.6212,22.9999,120.21971,42.6,NaN,,21.6,,0 / 0,11109,2021-01-13 15:15:26:128
0.13891,2.02109,11.59745,0.12696,1.60425,9.67371,-0.40992,-0.03266,-0.14716,-41.9,12.345,-13.43,71.164,-10.824,-0.461,5.0,40.6212,22.9999,120.21971,42.6,NaN,,21.6,,0 / 0,11209,2021-01-13 15:15:26:228
0.48381,-0.06024,14.61525,0.08428,1.31356,9.71791,-0.75678,0.00893,-0.17949,-41.531,11.88,-12.214,72.08,-7.698,-0.497,5.0,41.1953,22.9999,120.21971,42.6,NaN,,21.6,,0 / 0,11309,2021-01-13 15:15:26:328
0.8263,0.98881,9.33171,5.8E-4,1.28945,9.72151,0.83409,-0.26757,-0.2341,-41.428,8.092,-15.187,76.421,-7.556,-0.003,5.0,41.1953,22.9999,120.21971,42.6,NaN,,21.6,,0 / 0,11410,2021-01-13 15:15:26:429
0.05988,1.11096,7.96172,0.05561,1.87799,9.62499,0.37756,-0.00782,-0.47323,-39.47,7.229,-14.274,76.378,-9.932,-0.794,5.0,41.1953,22.9999,120.21971,42.6,NaN,,21.6,,0 / 0,11509,2021-01-13 15:15:26:528
-0.27783,2.57675,6.26361,-0.11439,2.19744,9.5566,0.22973,0.03804,-0.18345,-38.903,4.546,-14.666,78.277,-12.949,0.686,5.0,40.6495,22.9999,120.21971,42.6,NaN,,21.6,,0 / 0,11610,2021-01-13 15:15:26:629
-0.18682,1.95163,9.15926,-0.28261,2.13468,9.56732,-0.46028,0.16629,-0.03397,-38.453,3.288,-15.936,80.892,-12.573,1.692,5.0,40.6495,22.9999,120.21971,42.6,NaN,,21.6,,0 / 0,11709,2021-01-13 15:15:26:728
0.31855,2.82823,12.68242,-0.04736,1.77593,9.64439,-0.2924,-0.12017,0.48811,-37.206,5.597,-17.466,76.51,-11.075,1.433,5.0,40.6495,22.9999,120.21971,42.6,NaN,,21.6,,0 / 0,11809,2021-01-13 15:15:26:828
0.28262,0.65829,14.79488,-0.07327,1.49109,9.69235,-0.66815,0.07836,0.28639,-39.026,7.017,-16.008,76.618,-8.746,0.433,5.0,40.6495,22.9999,120.21971,42.6,NaN,,21.6,,0 / 0,11909,2021-01-13 15:15:26:928
-0.40716,1.45824,8.42876,0.09609,1.53715,9.68495,1.2374,-0.14579,0.18935,-38.399,5.163,-15.964,78.782,-9.018,-0.568,5.0,43.1476,22.9999,120.21971,42.6,NaN,,21.6,,0 / 0,12010,2021-01-13 15:15:27:029
-0.40956,0.84271,7.42043,0.28524,2.53478,9.46911,0.6986,-0.17329,-0.02713,-36.364,5.322,-16.681,76.041,-12.823,-1.4,5.0,43.1476,22.9999,120.21971,42.6,NaN,,21.6,,0 / 0,12108,2021-01-13 15:15:27:127
-0.5868,2.98631,6.10314,0.15047,2.73019,9.41774,-0.078,0.42817,0.23418,-34.116,4.082,-18.159,75.045,-16.165,-0.915,5.0,43.1476,22.9999,120.21971,42.6,NaN,,21.6,,0 / 0,12209,2021-01-13 15:15:27:228
0.27543,2.97912,8.03357,-0.19076,2.39433,9.50795,-0.62625,0.21767,0.16621,-34.397,4.391,-17.886,76.723,-14.132,1.149,5.0,40.9147,22.9999,120.21971,42.6,NaN,,21.6,,0 / 0,12309,2021-01-13 15:15:27:328
-0.60356,2.10252,13.43208,-0.04428,1.66149,9.66478,-0.39404,-0.27798,-0.27288,-34.926,5.666,-19.649,74.536,-11.614,1.01,5.0,40.9147,22.9999,120.21971,42.6,NaN,,21.6,,0 / 0,12409,2021-01-13 15:15:27:428
0.56763,1.15167,13.70512,0.01774,1.5947,9.6761,-0.07915,0.06996,-0.09688,-33.443,5.162,-20.108,76.038,-9.359,-0.105,5.0,40.9147,22.9999,120.21971,42.6,NaN,,21.6,,0 / 0,12509,2021-01-13 15:15:27:528
0.05988,1.45824,8.79521,-0.09579,1.39136,9.70697,0.8566,0.07054,-0.08557,-34.094,4.088,-20.833,78.609,-8.157,0.565,5.0,41.7917,22.9999,120.21971,42.6,NaN,,21.6,,0 / 0,12609,2021-01-13 15:15:27:628
0.36405,1.77679,7.37732,0.00257,2.33593,9.52438,0.77177,-0.17233,-0.12957,-34.662,0.937,-20.662,81.695,-11.489,0.305,5.0,41.7917,22.9999,120.21971,42.6,NaN,,21.6,,0 / 0,12709,2021-01-13 15:15:27:728
-0.83828,2.2103,6.00494,-0.12002,2.46123,9.49201,0.00646,0.23315,-0.56012,-32.645,-2.695,-22.343,85.682,-14.535,0.724,5.0,41.7917,22.9999,120.21971,42.6,NaN,,21.6,,0 / 0,12809,2021-01-13 15:15:27:828
-0.5365,1.78877,10.24902,-0.3512,2.30419,9.52564,-0.38,-0.12588,-0.26656,-33.316,-3.513,-21.931,88.318,-13.589,2.111,5.0,40.1726,22.9999,120.21971,42.6,NaN,,21.6,,0 / 0,12909,2021-01-13 15:15:27:928
-0.06706,2.22467,11.69086,-0.0849,1.66249,9.66433,-0.32449,-0.31567,0.40283,-32.242,-3.021,-22.274,88.059,-11.015,1.448,5.0,40.1726,22.9999,120.21971,42.6,NaN,,21.6,,0 / 0,13010,2021-01-13 15:15:28:029
0.97001,2.09534,13.93265,0.11731,1.50397,9.68993,-0.14816,-0.09014,0.62848,-34.894,-0.866,-21.754,85.964,-8.822,-0.694,5.0,40.1726,22.9999,120.21971,42.6,NaN,,21.6,,0 / 0,13109,2021-01-13 15:15:28:128
0.19879,1.06306,11.3771,0.12374,1.25744,9.72491,0.50698,0.0788,0.19894,-34.024,-0.666,-22.305,86.801,-7.367,-0.729,5.0,40.1726,22.9999,120.21971,42.6,NaN,,21.6,,0 / 0,13209,2021-01-13 15:15:28:228
-0.50536,0.73972,7.99525,0.24173,2.21937,9.54916,0.958,-0.20765,0.00257,-33.263,-3.119,-23.025,87.958,-10.154,-0.647,5.0,41.2925,22.9999,120.21971,42.6,NaN,,21.6,,0 / 0,13309,2021-01-13 15:15:28:328
-0.61314,1.21634,7.13542,0.17514,2.34898,9.51956,-0.00471,0.40941,0.16455,-33.93,-3.613,-22.064,87.383,-13.859,-1.054,5.0,41.2925,22.9999,120.21971,42.6,NaN,,21.6,,0 / 0,13410,2021-01-13 15:15:28:429
-0.11975,2.4043,6.58215,-0.20357,2.32559,9.52473,-0.05409,0.30534,0.29353,-33.151,-2.95,-23.704,85.548,-13.718,1.224,5.0,41.2925,22.9999,120.21971,42.6,NaN,,21.6,,0 / 0,13510,2021-01-13 15:15:28:529
-0.20837,1.94684,10.42386,-0.13151,1.63635,9.66827,-0.84732,-0.1107,-0.06374,-32.419,0.58,-22.787,79.9,-12.496,1.314,5.0,41.5843,22.9999,120.21971,42.6,NaN,,21.6,,0 / 0,13609,2021-01-13 15:15:28:628
-0.40956,2.60549,12.25849,-0.07712,1.31752,9.71744,-0.27385,-0.22817,-0.0453,-33.765,0.203,-25.064,84.451,-7.721,0.455,5.0,41.5843,22.9999,120.21971,42.6,NaN,,21.6,,0 / 0,13710,2021-01-13 15:15:28:729
0.76163,1.58997,13.06324,0.14748,1.37197,9.70909,-0.11949,-0.08503,-0.18385,-34.054,-1.642,-23.905,87.533,-8.042,-0.87,5.0,41.5843,22.9999,120.21971,42.6,NaN,,21.6,,0 / 0,13809,2021-01-13 15:15:28:828
0.30417,0.6511,9.25985,0.02513,1.54359,9.68437,0.34453,0.14706,-0.36811,-31.854,-2.025,-23.924,87.769,-7.565,-0.776,5.0,40.2313,22.9999,120.21971,42.6,NaN,,21.6,,0 / 0,13910,2021-01-13 15:15:28:929
0.30178,1.29777,8.51259,0.17389,1.94991,9.60927,0.29521,0.13543,-0.27909,-33.996,-5.959,-21.266,92.696,-11.469,-1.037,5.0,40.2313,22.9999,120.21971,42.6,NaN,,21.6,,0 / 0,14010,2021-01-13 15:15:29:029
-0.47423,2.47136,5.20259,-0.10397,2.38372,9.51196,0.54029,0.2275,-0.26639,-31.824,-6.706,-19.322,94.009,-14.068,0.626,5.0,40.2313,22.9999,120.21971,42.6,NaN,,21.6,,0 / 0,14109,2021-01-13 15:15:29:128
-0.69936,1.53728,8.01202,-0.29323,2.27351,9.53496,-0.76211,0.0915,-0.1254,-32.316,-6.88,-21.083,92.4,-15.323,1.045,5.0,40.2313,22.9999,120.21971,42.6,NaN,,21.6,,0 / 0,14209,2021-01-13 15:15:29:228
0.29459,2.29413,11.94474,-0.25242,1.83125,9.63085,-0.5689,-0.16806,0.2965,-32.765,-6.315,-22.287,93.323,-10.762,1.501,5.0,40.5134,22.9999,120.21971,42.6,NaN,,21.6,,0 / 0,14309,2021-01-13 15:15:29:328
0.8263,2.72285,13.29317,0.06777,1.5027,9.6906,-0.35733,0.14495,0.71843,-34.127,-1.845,-21.553,87.579,-8.814,-0.401,5.0,40.5134,22.9999,120.21971,42.6,NaN,,21.6,,0 / 0,14409,2021-01-13 15:15:29:428
0.27783,1.19958,10.2131,0.17008,1.32509,9.71523,-0.04249,-0.07071,0.41963,-33.692,0.031,-21.236,85.342,-7.46,-0.41,5.0,40.5134,22.9999,120.21971,42.6,NaN,,21.6,,0 / 0,14509,2021-01-13 15:15:29:528
-0.36166,0.73972,8.46229,0.34927,1.96215,9.602,0.73295,-0.31792,-0.14317,-34.122,-2.928,-19.518,87.749,-11.542,-2.083,5.0,41.183,22.9999,120.21971,42.6,NaN,,21.6,,0 / 0,14609,2021-01-13 15:15:29:628
-0.28741,1.70733,5.59778,0.3782,2.60153,9.44772,0.42055,0.31332,0.07525,-32.5,-4.211,-18.566,87.281,-15.384,-2.292,5.0,41.183,22.9999,120.21971,42.6,NaN,,21.6,,0 / 0,14709,2021-01-13 15:15:29:728
0.06946,3.11804,6.82166,0.1387,2.76144,9.4088,-0.47096,0.09903,0.23545,-34.199,-3.619,-19.949,86.353,-16.743,-1.227,5.0,41.183,22.9999,120.21971,42.6,NaN,,21.6,,0 / 0,14809,2021-01-13 15:15:29:828
-0.12933,2.32287,11.11125,0.09559,2.30882,9.53051,-1.0587,0.167,0.01668,-30.817,-1.771,-20.201,84.735,-13.617,-0.575,5.0,39.8579,22.9999,120.21971,42.6,NaN,,21.6,,0 / 0,14909,2021-01-13 15:15:29:928
0.27064,2.05941,13.29556,0.25413,1.5327,9.6828,-0.36703,-0.12171,-0.12483,-33.539,0.457,-19.06,84.698,-8.992,-1.503,5.0,39.8579,22.9999,120.21971,42.6,NaN,,21.6,,0 / 0,15009,2021-01-13 15:15:30:028
2.28491,-0.06742,14.52184,0.31832,1.10291,9.73923,-0.3831,-0.09598,-0.06816,-33.92,-0.823,-19.623,86.914,-7.688,-1.513,5.0,39.8579,22.9999,120.21971,42.6,NaN,,21.6,,0 / 0,15109,2021-01-13 15:15:30:128
1.24065,0.79241,9.13531,0.32316,1.14057,9.73473,0.88387,-0.21537,-0.36338,-33.047,-1.682,-16.93,89.793,-6.679,-1.901,5.0,41.6939,22.9999,120.21971,42.6,NaN,,21.6,,0 / 0,15209,2021-01-13 15:15:30:228
0.42153,1.64506,6.88873,0.33818,2.01075,9.59234,0.63547,0.16734,-0.39379,-35.138,-4.457,-17.946,89.956,-11.832,-2.019,5.0,41.6939,22.9999,120.21971,42.6,NaN,,21.6,,0 / 0,15309,2021-01-13 15:15:30:328
-0.16766,2.51687,5.24091,0.09019,2.66776,9.43638,0.17714,0.15778,-0.24422,-30.051,-5.647,-13.865,94.371,-14.11,-1.042,5.0,41.6939,22.9999,120.21971,42.6,NaN,,21.6,,0 / 0,15409,2021-01-13 15:15:30:428
0.12933,1.83667,9.53289,-0.14575,2.46718,9.49011,-0.74276,0.39241,0.04469,-30.823,-6.043,-16.582,93.022,-14.571,0.88,5.0,41.6939,22.9999,120.21971,42.6,NaN,,21.6,,0 / 0,15509,2021-01-13 15:15:30:528
0.44309,2.89769,12.50279,-0.01982,1.96784,9.60716,-0.41386,-0.19942,0.47309,-31.352,-4.681,-17.079,92.767,-11.576,0.118,5.0,39.9231,22.9999,120.21971,42.6,NaN,,21.6,,0 / 0,15609,2021-01-13 15:15:30:628
0.6323,0.61278,16.32534,0.00941,1.13873,9.74031,-0.86917,0.18148,0.1967,-30.207,-4.215,-16.38,92.435,-9.49,-0.426,5.0,39.9231,22.9999,120.21971,42.6,NaN,,21.6,,0 / 0,15709,2021-01-13 15:15:30:728
-0.39758,1.44148,8.61079,0.29267,1.12383,9.73765,0.99351,0.00346,0.14878,-31.59,-1.885,-14.977,90.288,-6.58,-1.722,5.0,39.9231,22.9999,120.21971,42.6,NaN,,21.6,,0 / 0,15809,2021-01-13 15:15:30:828
-0.23951,0.7517,9.21195,0.35834,2.08154,9.57649,0.62055,-0.14917,-0.1244,-31.623,-2.003,-14.731,87.301,-12.255,-2.143,5.0,42.2596,22.9999,120.21971,42.6,NaN,,21.6,,0 / 0,15909,2021-01-13 15:15:30:928
-0.67302,2.63423,5.09242,0.01949,2.74609,9.4143,0.56278,0.51155,0.16898,-30.819,-4.275,-14.314,90.506,-13.931,-1.872,5.0,42.2596,22.9999,120.21971,42.6,NaN,,21.6,,0 / 0,16009,2021-01-13 15:15:31:028
-0.08862,3.00786,7.1953,-0.18259,2.89621,9.36744,-0.11071,0.14473,0.1151,-31.293,-4.468,-14.138,89.755,-17.177,1.117,5.0,42.2596,22.9999,120.21971,42.6,NaN,,21.6,,0 / 0,16109,2021-01-13 15:15:31:128
-0.15089,2.91924,11.0873,-0.14143,2.42971,9.49984,-0.43626,-0.13469,-0.13431,-30.229,-2.985,-13.791,89.144,-14.345,0.853,5.0,41.0343,22.9999,120.21971,42.6,NaN,,21.6,,0 / 0,16209,2021-01-13 15:15:31:228
-0.3401,2.95517,12.09323,-0.08871,1.93827,9.61279,-0.44781,-0.03541,-0.09564,-31.091,-1.608,-15.3,87.598,-12.79,0.533,5.0,41.0343,22.9999,120.21971,42.6,NaN,,21.6,,0 / 0,16309,2021-01-13 15:15:31:328
-0.0024,0.90977,10.83582,-0.01626,1.72706,9.65336,0.09995,-0.01007,-0.343,-30.448,-2.169,-15.287,88.733,-10.143,0.096,5.0,41.0343,22.9999,120.21971,42.6,NaN,,21.6,,0 / 0,16409,2021-01-13 15:15:31:428
0.28741,0.87624,10.59391,0.03752,1.94449,9.61187,0.34061,-0.25029,-0.41332,-30.119,-3.373,-12.155,91.029,-11.437,-0.224,5.0,41.8021,22.9999,120.21971,42.6,NaN,,21.6,,0 / 0,16509,2021-01-13 15:15:31:528
0.01197,2.5504,5.96183,-0.02972,2.40809,9.50635,0.64697,0.26849,-0.04332,-30.069,-4.24,-12.461,92.445,-12.286,-0.724,5.0,41.8021,22.9999,120.21971,42.6,NaN,,21.6,,0 / 0,16610,2021-01-13 15:15:31:629
-0.45746,2.77075,5.72232,-0.12183,2.74223,9.41466,0.29655,0.01881,-0.17205,-29.441,-4.455,-12.188,91.16,-16.238,0.741,5.0,41.8021,22.9999,120.21971,42.6,NaN,,21.6,,0 / 0,16710,2021-01-13 15:15:31:729
-0.51494,2.75159,9.0898,-0.33712,2.39303,9.50422,-0.61227,0.18759,0.20133,-27.703,-3.852,-13.557,91.422,-14.124,2.031,5.0,41.8021,22.9999,120.21971,42.6,NaN,,21.6,,0 / 0,16809,2021-01-13 15:15:31:828
0.51494,2.09055,12.39262,-0.14535,1.84449,9.63053,-0.4723,-0.27165,0.35881,-27.441,-3.38,-12.367,91.182,-12.471,2.225,5.0,41.2132,22.9999,120.21971,42.6,NaN,,21.6,,0 / 0,16910,2021-01-13 15:15:31:929
0.73289,1.03911,14.76375,-0.13725,1.47409,9.69426,-0.37089,-0.17944,0.34684,-28.44,-0.576,-13.141,88.159,-8.645,0.811,5.0,41.2132,22.9999,120.21971,42.6,NaN,,21.6,,0 / 0,17009,2021-01-13 15:15:32:028
-0.11257,1.50136,8.82395,0.15263,1.44255,9.69877,0.65244,-0.24428,0.20217,-26.594,-0.292,-12.821,85.785,-8.459,-0.902,5.0,41.2132,22.9999,120.21971,42.6,NaN,,21.6,,0 / 0,17109,2021-01-13 15:15:32:128
-0.13652,0.44513,9.87539,0.50552,2.31357,9.51642,0.36223,-0.11596,-0.16952,-29.486,-0.928,-9.561,87.284,-12.184,-2.112,5.0,41.8066,22.9999,120.21971,42.6,NaN,,21.6,,0 / 0,17209,2021-01-13 15:15:32:228
-0.15329,2.54801,5.16427,0.38335,2.60281,9.44716,0.88818,0.37358,0.09806,-27.617,-1.783,-10.686,87.317,-15.391,-2.324,5.0,41.8066,22.9999,120.21971,42.6,NaN,,21.6,,0 / 0,17309,2021-01-13 15:15:32:328
0.08622,3.02463,5.58101,0.00275,3.23424,9.25797,-0.22266,0.33959,-0.03514,-28.965,-3.549,-10.15,90.939,-19.257,-0.017,5.0,41.8066,22.9999,120.21971,42.6,NaN,,21.6,,0 / 0,17409,2021-01-13 15:15:32:428
-0.42872,3.29527,9.67181,-0.16539,2.743,9.41377,-0.61347,-0.05388,-0.20869,-26.55,-2.392,-11.521,86.409,-18.346,1.138,5.0,41.0958,22.9999,120.21971,42.6,NaN,,21.6,,0 / 0,17509,2021-01-13 15:15:32:528
0.6802,1.89654,14.80207,-0.06993,2.40702,9.50641,-0.93932,0.0632,0.02042,-27.569,-1.412,-9.531,87.075,-14.208,0.421,5.0,41.0958,22.9999,120.21971,42.6,NaN,,21.6,,0 / 0,17609,2021-01-13 15:15:32:628
-0.03832,1.45824,10.03586,-0.03781,1.54556,9.68402,-0.25478,-0.07806,-0.00571,-28.034,-1.816,-9.134,91.173,-9.068,0.224,5.0,41.0958,22.9999,120.21971,42.6,NaN,,21.6,,0 / 0,17709,2021-01-13 15:15:32:728
1.17119,2.08576,8.85029,0.16867,2.4406,9.4966,0.52798,-0.15086,-0.31546,-28.382,-3.085,-10.549,90.092,-14.411,-1.018,5.0,48.0617,22.9999,120.21971,42.6,NaN,,21.6,,0 / 0,17809,2021-01-13 15:15:32:828
-0.35447,2.16719,6.82885,0.06283,2.59276,9.45749,0.26653,0.19099,-0.58226,-27.705,-3.956,-7.386,94.006,-15.331,-0.381,5.0,48.0617,22.9999,120.21971,42.6,NaN,,21.6,,0 / 0,17909,2021-01-13 15:15:32:928
-0.52931,3.27132,4.91997,-0.32168,3.11719,9.29247,0.29076,0.13396,-0.12154,-26.502,-6.643,-7.367,99.815,-18.534,1.983,5.0,48.0617,22.9999,120.21971,42.6,NaN,,21.6,,0 / 0,18010,2021-01-13 15:15:33:029
-0.03353,3.18989,8.88383,-0.40899,3.00399,9.32626,-0.36931,0.04456,0.0967,-25.733,-5.873,-8.087,97.43,-19.153,2.613,5.0,41.132,22.9999,120.21971,42.6,NaN,,21.6,,0 / 0,18109,2021-01-13 15:15:33:128
0.15568,3.20186,12.57225,-0.2083,2.70256,9.4246,-1.06729,0.26658,0.41267,-26.878,-5.385,-8.137,95.814,-15.997,1.266,5.0,41.132,22.9999,120.21971,42.6,NaN,,21.6,,0 / 0,18209,2021-01-13 15:15:33:228
-0.33771,2.08336,10.83103,-0.17385,1.67272,9.66138,-0.42233,-0.36592,0.11608,-27.054,-3.565,-8.8,95.237,-9.821,1.031,5.0,41.132,22.9999,120.21971,42.6,NaN,,21.6,,0 / 0,18309,2021-01-13 15:15:33:328
-0.43351,1.58997,10.58673,0.49054,2.31878,9.51594,0.28873,-0.2265,-0.0053,-27.573,-3.641,-6.394,94.402,-13.677,-2.951,5.0,41.132,22.9999,120.21971,42.6,NaN,,21.6,,0 / 0,18411,2021-01-13 15:15:33:430
-0.22753,1.70254,6.06721,0.48795,2.40963,9.49347,0.2934,0.27357,0.00586,-26.353,-5.598,-5.76,98.895,-14.224,-2.942,5.0,42.1214,22.9999,120.21971,42.6,NaN,,21.6,,0 / 0,18511,2021-01-13 15:15:33:530
-0.53889,3.2833,4.88644,-0.10568,2.92937,9.35831,0.17526,0.46149,0.31941,-28.081,-3.059,-6.646,91.768,-17.38,0.647,5.0,42.1214,22.9999,120.21971,42.6,NaN,,21.6,,0 / 0,18609,2021-01-13 15:15:33:628
-0.17963,2.88332,10.1149,-0.27634,2.71392,9.41959,-0.47821,0.02761,0.00763,-28.008,-4.062,-6.018,94.893,-16.066,1.68,5.0,42.1214,22.9999,120.21971,42.6,NaN,,21.6,,0 / 0,18709,2021-01-13 15:15:33:728
-0.14131,3.17073,11.09688,-0.11598,2.11255,9.5757,-0.36335,-0.0473,-0.26632,-28.896,-4.43,-4.492,95.931,-13.804,0.727,5.0,41.1415,22.9999,120.21971,42.6,NaN,,21.6,,0 / 0,18809,2021-01-13 15:15:33:828
0.75445,1.14209,13.7171,-0.10649,2.01954,9.59586,-0.15738,-0.15003,-0.29367,-28.19,-4.186,-5.087,96.0,-11.884,0.636,5.0,41.1415,22.9999,120.21971,42.6,NaN,,21.6,,0 / 0,18909,2021-01-13 15:15:33:928
0.194,0.73254,11.02024,0.02744,1.91744,9.61733,0.21404,-0.07695,-0.48105,-27.163,-6.854,-2.418,103.456,-11.275,-0.163,5.0,41.1415,22.9999,120.21971,42.6,NaN,,21.6,,0 / 0,19010,2021-01-13 15:15:34:029
-0.91732,2.82584,5.05649,-0.18276,2.4042,9.50562,0.44683,0.17752,-0.20686,-27.531,-7.853,-2.087,104.746,-12.203,-0.285,5.0,42.3444,22.9999,120.21971,42.6,NaN,,21.6,,0 / 0,19111,2021-01-13 15:15:34:130
-0.8287,2.40191,5.88758,-0.316,2.73764,9.41148,-0.02672,0.05249,-0.05787,-26.768,-8.591,-2.183,107.129,-16.21,1.923,5.0,42.3444,22.9999,120.21971,42.6,NaN,,21.6,,0 / 0,19210,2021-01-13 15:15:34:229
0.07664,0.87624,8.59642,-0.39083,2.19922,9.54888,-0.76434,0.073,0.10944,-27.594,-7.93,-2.773,104.343,-15.639,2.185,5.0,42.3444,22.9999,120.21971,42.6,NaN,,21.6,,0 / 0,19308,2021-01-13 15:15:34:327
1.13766,2.24383,12.53632,-0.24893,1.76888,9.64259,-0.43692,-0.13178,0.83249,-28.505,-5.662,-2.687,100.706,-10.392,1.479,5.0,42.8387,22.9999,120.21971,42.6,NaN,,21.6,,0 / 0,19409,2021-01-13 15:15:34:428
0.45027,1.56602,14.82842,-0.19459,1.1597,9.73589,-0.68897,0.3531,0.62624,-29.586,-3.34,-3.873,94.897,-6.792,1.145,5.0,42.8387,22.9999,120.21971,42.6,NaN,,21.6,,0 / 0,19510,2021-01-13 15:15:34:529
-0.26106,1.64506,8.218,0.03431,1.24912,9.72671,1.04485,-0.12466,0.42778,-30.002,-3.383,-3.148,94.917,-7.318,-0.202,5.0,42.8387,22.9999,120.21971,42.6,NaN,,21.6,,0 / 0,19610,2021-01-13 15:15:34:629
0.42632,1.31215,9.15447,0.07491,1.89646,9.62124,0.64324,-0.12856,0.24622,-31.31,-3.426,-1.588,94.631,-11.15,-0.446,5.0,42.8387,22.9999,120.21971,42.6,NaN,,21.6,,0 / 0,19709,2021-01-13 15:15:34:728
-0.5844,2.37556,6.76418,0.19128,2.19759,9.55533,0.54263,0.26639,-0.00561,-30.519,-4.161,-2.252,96.106,-12.949,-1.147,5.0,44.6183,22.9999,120.21971,42.6,NaN,,21.6,,0 / 0,19809,2021-01-13 15:15:34:828
-0.28741,2.76356,4.91039,-0.3188,2.79979,9.39308,0.49589,0.56253,0.13807,-31.328,-4.653,-2.153,98.285,-16.589,1.944,5.0,44.6183,22.9999,120.21971,42.6,NaN,,21.6,,0 / 0,19909,2021-01-13 15:15:34:928
-1.00593,1.86541,10.88851,-0.28067,2.39218,9.50627,-0.79864,-0.24474,-0.40084,-30.549,-4.557,-1.975,98.326,-16.741,2.13,5.0,44.6183,22.9999,120.21971,42.6,NaN,,21.6,,0 / 0,20009,2021-01-13 15:15:35:028
-0.45028,2.52645,13.22371,-0.15927,1.98096,9.60317,-0.6428,-0.24424,-0.17674,-30.924,-4.862,-1.851,98.427,-11.654,0.95,5.0,42.6706,22.9999,120.21971,42.6,NaN,,21.6,,0 / 0,20109,2021-01-13 15:15:35:128
1.10413,0.44752,14.51945,0.16116,1.38557,9.70694,-0.45622,-0.23022,-0.21417,-31.547,-4.808,-1.393,98.42,-8.122,-0.951,5.0,42.6706,22.9999,120.21971,42.6,NaN,,21.6,,0 / 0,20209,2021-01-13 15:15:35:228
1.19275,1.02474,9.59517,0.13943,1.58884,9.67608,0.37726,0.09722,-0.11257,-33.091,-5.878,0.007,100.159,-7.245,-0.537,5.0,42.6706,22.9999,120.21971,42.6,NaN,,21.6,,0 / 0,20309,2021-01-13 15:15:35:328
0.49818,1.66662,6.57257,0.07938,1.96268,9.60791,0.6328,0.2687,-0.41072,-31.39,-5.039,-1.187,98.529,-11.545,-0.473,5.0,41.9295,22.9999,120.21971,42.6,NaN,,21.6,,0 / 0,20409,2021-01-13 15:15:35:428
-0.38082,2.18874,6.26361,-0.33871,2.4303,9.4947,0.25035,0.26728,-0.46213,-30.414,-5.753,-1.534,100.523,-14.349,2.043,5.0,41.9295,22.9999,120.21971,42.6,NaN,,21.6,,0 / 0,20509,2021-01-13 15:15:35:528
-0.90774,1.3361,9.81791,-0.42945,2.24412,9.53677,-0.53398,-0.00111,0.0577,-30.492,-5.916,-0.98,101.16,-13.229,2.578,5.0,41.9295,22.9999,120.21971,42.6,NaN,,21.6,,0 / 0,20609,2021-01-13 15:15:35:628
0.49339,2.4522,12.89798,-0.27639,1.74931,9.64541,-0.25028,-0.21598,0.53858,-30.148,-5.358,0.031,99.602,-10.275,1.641,5.0,42.8154,22.9999,120.21971,42.6,NaN,,21.6,,0 / 0,20709,2021-01-13 15:15:35:728
-0.17724,0.39483,16.66065,5.9E-4,1.271,9.72394,-0.50464,-0.47533,0.1299,-31.436,-2.802,-1.878,95.006,-7.447,-0.003,5.0,42.8154,22.9999,120.21971,42.6,NaN,,21.6,,0 / 0,20809,2021-01-13 15:15:35:828
0.13412,2.04743,8.68024,0.01633,1.98215,9.60423,0.991,0.26231,0.46179,-32.935,-3.732,-0.469,96.732,-7.867,-0.856,5.0,42.8154,22.9999,120.21971,42.6,NaN,,21.6,,0 / 0,20910,2021-01-13 15:15:35:929
-0.33052,1.45585,6.8528,0.04743,2.33728,9.52393,0.45264,-0.02231,0.02631,-32.995,-1.345,0.023,91.618,-13.788,-0.285,5.0,42.8154,22.9999,120.21971,42.6,NaN,,21.6,,0 / 0,21010,2021-01-13 15:15:36:029
-0.74008,2.67255,6.05284,-0.15365,2.66139,9.43736,0.2128,0.35896,0.16668,-32.098,-0.725,0.093,91.976,-15.747,0.933,5.0,43.925,22.9999,120.21971,42.6,NaN,,21.6,,0 / 0,21109,2021-01-13 15:15:36:128
0.33292,2.78033,8.22518,-0.2053,2.42296,9.5004,-0.43584,-0.05497,0.00327,-32.989,0.306,-0.886,89.868,-15.392,1.239,5.0,43.925,22.9999,120.21971,42.6,NaN,,21.6,,0 / 0,21209,2021-01-13 15:15:36:228
-0.61554,2.64381,11.14239,-0.09818,2.05245,9.58896,-0.58413,-0.18156,-0.23659,-31.985,1.462,-1.323,87.999,-12.081,0.587,5.0,43.925,22.9999,120.21971,42.6,NaN,,21.6,,0 / 0,21309,2021-01-13 15:15:36:328
0.35208,1.80314,14.71824,-0.00386,1.72771,9.65326,-0.47273,-0.22955,-0.23011,-33.631,1.443,-2.119,87.753,-10.147,0.023,5.0,42.2276,22.9999,120.21971,42.6,NaN,,21.6,,0 / 0,21409,2021-01-13 15:15:36:428
0.90294,-0.13927,14.71824,0.24948,1.2827,9.7192,-0.47833,-0.31543,-0.3308,-35.277,-0.369,-0.519,89.666,-7.996,-0.762,5.0,42.2276,22.9999,120.21971,42.6,NaN,,21.6,,0 / 0,21509,2021-01-13 15:15:36:528
0.47662,1.64985,6.54383,0.22177,1.90583,9.61712,1.01638,0.04734,-0.03264,-35.885,1.318,-1.423,87.872,-11.206,-1.321,5.0,42.2276,22.9999,120.21971,42.6,NaN,,21.6,,0 / 0,21609,2021-01-13 15:15:36:628
-0.30897,2.5049,5.55706,-0.02316,2.72222,9.42122,0.52742,0.28975,-0.17019,-34.058,1.151,-1.591,87.487,-16.116,0.141,5.0,44.992,22.9999,120.21971,42.6,NaN,,21.6,,0 / 0,21709,2021-01-13 15:15:36:728
-0.18442,1.78398,7.60006,-0.22254,2.82729,9.38762,-0.47021,-0.01816,-0.20763,-34.01,-0.294,-4.187,88.453,-16.756,1.358,5.0,44.992,22.9999,120.21971,42.6,NaN,,21.6,,0 / 0,21809,2021-01-13 15:15:36:828
0.17005,2.44023,10.34962,-0.13851,2.17411,9.56161,-0.66385,-0.2008,0.05691,-33.359,0.922,-3.017,87.341,-12.809,0.83,5.0,44.992,22.9999,120.21971,42.6,NaN,,21.6,,0 / 0,21910,2021-01-13 15:15:36:929
0.48141,3.31683,11.89684,-0.0925,1.89137,9.62209,-0.28682,0.10578,0.53952,-33.817,4.305,-4.899,81.932,-11.12,0.551,5.0,44.992,22.9999,120.21971,42.6,NaN,,21.6,,0 / 0,22009,2021-01-13 15:15:37:028
-0.40237,0.9936,13.34107,0.01434,1.67515,9.66251,-0.38648,-0.46482,0.08534,-34.567,5.377,-4.524,80.606,-9.835,-0.085,5.0,41.9748,22.9999,120.21971,42.6,NaN,,21.6,,0 / 0,22109,2021-01-13 15:15:37:128
0.18682,1.35526,8.15812,0.25066,2.02935,9.59111,0.82896,0.09451,0.21142,-34.551,6.042,-4.575,78.497,-11.943,-1.497,5.0,41.9748,22.9999,120.21971,42.6,NaN,,21.6,,0 / 0,22209,2021-01-13 15:15:37:228
-0.43591,1.90133,6.32109,0.1941,2.6883,9.42898,0.44984,0.05178,-0.04132,-34.361,5.921,-5.798,77.342,-15.91,-1.179,5.0,41.9748,22.9999,120.21971,42.6,NaN,,21.6,,0 / 0,22309,2021-01-13 15:15:37:328
-0.09101,2.90487,6.93423,-0.35203,2.77103,9.40042,-0.22584,0.4079,0.15563,-32.779,8.242,-8.197,73.424,-16.792,0.71,5.0,42.7984,22.9999,120.21971,42.6,NaN,,21.6,,0 / 0,22409,2021-01-13 15:15:37:428
-0.52452,2.53603,9.65983,-0.41764,2.65308,9.43171,-0.19655,-0.0524,-0.02979,-32.38,6.545,-8.498,75.236,-15.696,2.535,5.0,42.7984,22.9999,120.21971,42.6,NaN,,21.6,,0 / 0,22509,2021-01-13 15:15:37:528
-0.18682,2.61746,12.18425,0.02865,2.18555,9.55996,-0.52306,-0.22411,-0.22731,-33.873,6.728,-7.447,76.104,-12.877,-0.172,5.0,42.7984,22.9999,120.21971,42.6,NaN,,21.6,,0 / 0,22609,2021-01-13 15:15:37:628
1.08018,0.61278,14.97691,0.07217,1.94368,9.61183,-0.5177,-0.25798,-0.26216,-34.656,8.437,-8.695,74.516,-11.432,-0.43,5.0,41.7793,22.9999,120.21971,42.6,NaN,,21.6,,0 / 0,22709,2021-01-13 15:15:37:728
0.51494,1.41274,9.88257,0.04667,1.47783,9.69455,0.74726,-0.01149,-0.17965,-35.016,6.689,-9.608,76.405,-8.667,-0.276,5.0,41.7793,22.9999,120.21971,42.6,NaN,,21.6,,0 / 0,22809,2021-01-13 15:15:37:828
0.31855,1.68338,6.61808,0.08313,2.41131,9.50521,0.84441,-0.03545,-0.30257,-34.137,6.829,-9.622,74.637,-14.234,-0.501,5.0,41.7793,22.9999,120.21971,42.6,NaN,,21.6,,0 / 0,22909,2021-01-13 15:15:37:928
-0.67062,2.71806,5.19061,-0.15583,2.64561,9.44176,0.0267,0.17028,-0.35745,-33.244,4.33,-11.08,78.629,-15.651,0.946,5.0,42.1996,22.9999,120.21971,42.6,NaN,,21.6,,0 / 0,23009,2021-01-13 15:15:38:028
0.11736,1.93966,8.2659,-0.38256,2.43115,9.49282,-0.74667,-0.00981,-0.16305,-34.756,2.971,-9.85,81.901,-14.354,2.308,5.0,42.1996,22.9999,120.21971,42.6,NaN,,21.6,,0 / 0,23109,2021-01-13 15:15:38:128
0.93169,2.02827,13.04169,-0.06745,1.37889,9.70899,-0.50306,-0.54317,0.19255,-34.065,6.47,-9.352,78.109,-8.083,0.398,5.0,42.1996,22.9999,120.21971,42.6,NaN,,21.6,,0 / 0,23209,2021-01-13 15:15:38:228
1.0203,0.57446,16.40677,0.21935,1.13896,9.73782,-0.72143,-0.25025,0.11274,-34.282,7.358,-10.515,76.151,-6.669,-1.29,5.0,42.1996,22.9999,120.21971,42.6,NaN,,21.6,,0 / 0,23309,2021-01-13 15:15:38:328
-0.27304,1.35526,8.12698,0.569,0.73586,9.76244,1.20485,0.08109,0.10146,-34.64,7.99,-9.567,75.51,-4.303,-3.336,5.0,43.4035,22.9999,120.21971,42.6,NaN,,21.6,,0 / 0,23413,2021-01-13 15:15:38:432
-0.69457,0.68942,6.75221,0.49226,1.96446,9.59526,0.85866,-0.01617,-0.11875,-33.638,7.591,-10.11,73.058,-11.556,-2.937,5.0,43.4035,22.9999,120.21971,42.6,NaN,,21.6,,0 / 0,23509,2021-01-13 15:15:38:528
-1.11132,2.26299,5.71753,0.1395,2.41555,9.50347,0.14403,0.3491,0.08292,-34.704,4.498,-10.509,78.977,-13.462,-2.03,5.0,43.4035,22.9999,120.21971,42.6,NaN,,21.6,,0 / 0,23609,2021-01-13 15:15:38:628
-0.4886,2.16,8.19404,-0.05691,2.22342,9.5511,-0.51264,0.33295,0.24052,-33.514,8.237,-14.494,72.235,-13.104,0.341,5.0,42.9771,22.9999,120.21971,42.6,NaN,,21.6,,0 / 0,23709,2021-01-13 15:15:38:728
-0.57003,2.03785,12.11239,0.06587,1.41964,9.70313,-0.49142,-0.37136,0.08843,-34.247,8.571,-12.747,72.303,-8.324,-0.389,5.0,42.9771,22.9999,120.21971,42.6,NaN,,21.6,,0 / 0,23809,2021-01-13 15:15:38:828
0.77361,0.85947,15.16133,0.28125,0.87985,9.76305,-0.48718,-0.06745,0.23623,-33.442,10.407,-15.234,70.211,-6.722,-1.141,5.0,42.9771,22.9999,120.21971,42.6,NaN,,21.6,,0 / 0,23909,2021-01-13 15:15:38:928
1.1209,0.32537,9.75085,0.47459,0.83047,9.75989,0.63223,0.10793,-0.0465,-32.977,9.767,-13.94,70.733,-4.858,-2.784,5.0,43.3614,22.9999,120.21971,42.6,NaN,,21.6,,0 / 0,24008,2021-01-13 15:15:39:027
0.83588,1.25227,7.14979,0.36916,1.82288,9.62867,1.04189,0.05431,0.04991,-33.34,9.348,-14.548,69.889,-10.713,-2.196,5.0,43.3614,22.9999,120.21971,42.6,NaN,,21.6,,0 / 0,24109,2021-01-13 15:15:39:128
0.14131,2.46178,4.88404,0.03855,2.37055,9.51574,0.31884,0.26811,-0.2127,-33.107,5.845,-16.694,73.362,-12.645,-1.323,5.0,43.3614,22.9999,120.21971,42.6,NaN,,21.6,,0 / 0,24209,2021-01-13 15:15:39:228
0.04311,2.25102,7.21206,-0.09915,2.34831,9.52082,-0.27825,0.20685,-0.14301,-33.134,5.402,-17.082,75.075,-13.855,0.597,5.0,42.9007,22.9999,120.21971,42.6,NaN,,21.6,,0 / 0,24309,2021-01-13 15:15:39:328
0.39758,2.25581,13.28598,-0.12003,1.53822,9.68452,-0.55436,-0.29947,0.17275,-33.691,7.685,-17.148,72.935,-9.024,0.71,5.0,42.9007,22.9999,120.21971,42.6,NaN,,21.6,,0 / 0,24410,2021-01-13 15:15:39:429
0.7808,2.29892,13.77698,0.07833,1.19311,9.73349,-0.26141,-0.07275,0.53799,-33.767,7.829,-17.424,73.136,-7.753,-0.509,5.0,42.9007,22.9999,120.21971,42.6,NaN,,21.6,,0 / 0,24510,2021-01-13 15:15:39:529
-0.47662,1.90852,8.28027,0.14148,1.11825,9.74166,1.00379,-0.22469,0.11836,-33.266,9.522,-18.622,69.62,-6.548,-0.832,5.0,42.9007,22.9999,120.21971,42.6,NaN,,21.6,,0 / 0,24609,2021-01-13 15:15:39:628
-0.18921,0.85468,9.54726,0.44982,2.31274,9.51942,0.92994,-0.30893,-0.05229,-34.706,7.142,-17.86,71.471,-13.641,-2.705,5.0,47.1943,22.9999,120.21971,42.6,NaN,,21.6,,0 / 0,24709,2021-01-13 15:15:39:728
-0.71613,1.69296,5.32953,0.09665,2.54757,9.46947,0.39437,0.31695,-0.08994,-33.876,6.005,-17.834,72.655,-13.962,-1.865,5.0,47.1943,22.9999,120.21971,42.6,NaN,,21.6,,0 / 0,24809,2021-01-13 15:15:39:828
-0.39279,2.50969,6.49833,-0.06992,2.71694,9.42251,0.12228,0.29046,0.25002,-32.86,5.438,-20.447,72.774,-16.084,0.425,5.0,47.1943,22.9999,120.21971,42.6,NaN,,21.6,,0 / 0,24909,2021-01-13 15:15:39:928
-0.20598,2.17916,11.13999,-0.06763,2.3563,9.51912,-0.4962,-0.33811,-0.10091,-33.27,5.66,-20.613,71.933,-13.903,0.407,5.0,43.2847,22.9999,120.21971,42.6,NaN,,21.6,,0 / 0,25010,2021-01-13 15:15:40:029
0.54368,2.28215,13.84164,0.18702,1.57413,9.67768,-0.74054,-0.19879,-0.07591,-33.142,7.217,-18.34,71.975,-11.773,-0.965,5.0,43.2847,22.9999,120.21971,42.6,NaN,,21.6,,0 / 0,25109,2021-01-13 15:15:40:128
0.71134,0.33016,11.38908,0.28009,1.1432,9.73576,-0.44961,0.06896,-0.18213,-35.019,9.888,-17.265,70.775,-6.694,-1.648,5.0,43.2847,22.9999,120.21971,42.6,NaN,,21.6,,0 / 0,25209,2021-01-13 15:15:40:228
0.88857,1.01276,8.23236,0.05427,1.44903,9.69885,0.88587,0.27064,-0.08852,-35.237,8.528,-20.21,71.187,-8.497,-0.321,5.0,44.0455,22.9999,120.21971,42.6,NaN,,21.6,,0 / 0,25309,2021-01-13 15:15:40:328
-0.17724,1.8199,6.52707,-0.01095,2.03451,9.59328,0.29543,0.0981,-0.31701,-34.269,5.091,-19.483,75.824,-10.837,-0.538,5.0,44.0455,22.9999,120.21971,42.6,NaN,,21.6,,0 / 0,25409,2021-01-13 15:15:40:428
-0.27064,1.9684,6.52946,-0.06861,2.14809,9.56825,0.09709,0.06885,-0.23053,-34.635,4.669,-19.324,75.655,-12.653,0.411,5.0,44.0455,22.9999,120.21971,42.6,NaN,,21.6,,0 / 0,25509,2021-01-13 15:15:40:528
-0.10299,1.27861,11.59266,-0.22173,1.58681,9.67488,-0.63471,-0.14048,0.06162,-34.313,5.492,-21.202,76.611,-9.312,1.313,5.0,41.8864,22.9999,120.21971,42.6,NaN,,21.6,,0 / 0,25608,2021-01-13 15:15:40:627
0.06946,2.59591,11.67649,0.01296,1.11253,9.74333,-0.3937,-0.18751,0.30562,-34.709,5.85,-20.678,76.234,-7.312,0.295,5.0,41.8864,22.9999,120.21971,42.6,NaN,,21.6,,0 / 0,25709,2021-01-13 15:15:40:728
-0.10538,0.43315,14.07397,0.08119,1.01762,9.75337,-0.21144,-0.41564,0.09722,-33.625,8.901,-18.638,72.066,-5.956,-0.477,5.0,41.8864,22.9999,120.21971,42.6,NaN,,21.6,,0 / 0,25810,2021-01-13 15:15:40:829
0.54847,0.81397,10.24663,0.53519,1.3829,9.69389,0.77992,-0.34509,0.0524,-35.935,9.712,-20.254,69.545,-8.107,-3.16,5.0,42.2135,22.9999,120.21971,42.6,NaN,,21.6,,0 / 0,25909,2021-01-13 15:15:40:928
-0.18921,0.91217,6.78334,0.40241,1.84704,9.62273,0.37012,0.35766,-0.06558,-34.801,6.349,-18.998,74.294,-9.788,-3.487,5.0,42.2135,22.9999,120.21971,42.6,NaN,,21.6,,0 / 0,26009,2021-01-13 15:15:41:028
-0.55805,2.05702,5.59059,0.15097,2.04985,9.58883,0.35118,0.42955,0.15635,-33.716,6.959,-20.272,71.703,-12.065,-0.902,5.0,42.2135,22.9999,120.21971,42.6,NaN,,21.6,,0 / 0,26109,2021-01-13 15:15:41:128
0.07904,2.44981,6.89831,-0.12976,2.23856,9.54685,-0.27235,0.2338,0.01568,-32.794,7.102,-20.887,70.929,-13.195,0.779,5.0,42.2135,22.9999,120.21971,42.6,NaN,,21.6,,0 / 0,26209,2021-01-13 15:15:41:228
-0.70655,1.73607,11.6214,-0.1391,1.50743,9.6891,-0.7751,-0.09253,-0.19776,-33.704,7.633,-21.613,70.782,-11.57,1.587,5.0,42.6352,22.9999,120.21971,42.6,NaN,,21.6,,0 / 0,26309,2021-01-13 15:15:41:328
1.25263,0.18646,15.68346,-0.01303,1.13871,9.74031,-0.84313,-0.26465,-0.00227,-34.911,10.055,-19.603,70.725,-6.668,0.077,5.0,42.6352,22.9999,120.21971,42.6,NaN,,21.6,,0 / 0,26409,2021-01-13 15:15:41:428
0.33771,-0.02431,12.18185,0.18516,0.53986,9.79003,-0.1611,-0.07335,-0.19708,-33.78,11.75,-19.659,68.683,-3.156,-1.084,5.0,42.6352,22.9999,120.21971,42.6,NaN,,21.6,,0 / 0,26509,2021-01-13 15:15:41:528
0.54847,1.10617,6.29954,0.33835,1.46599,9.69055,0.83724,0.07162,-0.22474,-36.06,5.998,-20.24,76.978,-5.884,-2.089,5.0,42.7252,22.9999,120.21971,42.6,NaN,,21.6,,0 / 0,26609,2021-01-13 15:15:41:628
0.03593,2.09773,4.24216,0.24362,1.99991,9.59747,0.87451,0.10342,-0.25475,-34.455,4.256,-19.434,76.628,-11.767,-1.454,5.0,42.7252,22.9999,120.21971,42.6,NaN,,21.6,,0 / 0,26709,2021-01-13 15:15:41:728
0.55566,0.70619,8.9964,0.02726,1.99525,9.60149,-0.6646,0.15292,-0.17576,-34.836,4.617,-21.212,75.266,-11.739,-0.163,5.0,42.7252,22.9999,120.21971,42.6,NaN,,21.6,,0 / 0,26809,2021-01-13 15:15:41:828
0.17005,1.4798,12.37106,0.21088,1.24873,9.72454,-0.63895,-0.31505,0.08132,-34.774,5.447,-19.404,77.045,-9.373,-0.135,5.0,42.3292,22.9999,120.21971,42.6,NaN,,21.6,,0 / 0,26909,2021-01-13 15:15:41:928
1.06342,-0.04347,17.13727,0.29037,1.10896,9.73942,-0.55515,-0.19415,0.45255,-34.923,11.275,-18.981,69.025,-6.493,-1.708,5.0,42.3292,22.9999,120.21971,42.6,NaN,,21.6,,0 / 0,27009,2021-01-13 15:15:42:028
0.13891,1.19,9.41793,0.49779,0.74218,9.76585,0.03129,-0.06743,-0.04663,-35.316,10.187,-20.207,71.102,-4.34,-2.918,5.0,42.3292,22.9999,120.21971,42.6,NaN,,21.6,,0 / 0,27109,2021-01-13 15:15:42:128
0.54368,0.07868,10.28255,0.59558,1.40251,9.68755,0.26729,-0.09477,-0.10895,-33.532,10.685,-19.327,67.566,-7.383,-3.141,5.0,42.6107,22.9999,120.21971,42.6,NaN,,21.6,,0 / 0,27209,2021-01-13 15:15:42:228
-0.21077,2.12408,4.88165,0.48011,1.7036,9.6456,0.73579,0.34726,-0.03298,-34.711,8.319,-18.267,71.641,-10.004,-2.85,5.0,42.6107,22.9999,120.21971,42.6,NaN,,21.6,,0 / 0,27309,2021-01-13 15:15:42:328
0.47902,2.7947,5.9738,0.12221,2.22767,9.5495,-0.17904,0.19908,0.12896,-32.802,9.344,-22.389,67.043,-13.13,-0.733,5.0,42.6107,22.9999,120.21971,42.6,NaN,,21.6,,0 / 0,27409,2021-01-13 15:15:42:428
-0.57242,1.93726,9.6287,0.03705,1.75745,9.64782,-0.5171,-0.01095,-0.33921,-32.981,10.304,-21.527,66.289,-12.226,-0.211,5.0,42.6107,22.9999,120.21971,42.6,NaN,,21.6,,0 / 0,27509,2021-01-13 15:15:42:528
-0.71134,2.19114,12.43333,0.07713,1.55999,9.68147,-0.43353,0.00475,-0.09685,-33.484,9.502,-21.795,67.772,-9.153,-0.456,5.0,42.3035,22.9999,120.21971,42.6,NaN,,21.6,,0 / 0,27609,2021-01-13 15:15:42:628
-0.15568,-0.47698,13.20934,0.02852,0.93032,9.76238,-0.66474,0.02186,-0.03731,-33.366,12.653,-19.519,65.737,-5.444,-0.167,5.0,42.3035,22.9999,120.21971,42.6,NaN,,21.6,,0 / 0,27709,2021-01-13 15:15:42:728
0.85983,0.39483,10.94839,0.22968,0.80285,9.77103,0.46627,-0.2861,-0.12315,-31.966,10.433,-20.772,70.465,-3.732,-0.047,5.0,42.3035,22.9999,120.21971,42.6,NaN,,21.6,,0 / 0,27809,2021-01-13 15:15:42:828
-0.194,1.37921,5.37982,0.16372,1.19011,9.73279,0.73464,0.24505,-0.19157,-32.14,10.208,-20.096,68.583,-6.97,-0.964,5.0,43.138,22.9999,120.21971,42.6,NaN,,21.6,,0 / 0,27909,2021-01-13 15:15:42:928
-1.08018,2.22707,4.96548,-0.35096,2.16725,9.55773,0.33985,0.31998,-0.16979,-31.832,6.548,-23.432,70.463,-12.768,2.103,5.0,43.138,22.9999,120.21971,42.6,NaN,,21.6,,0 / 0,28009,2021-01-13 15:15:43:028
-0.65865,1.80314,10.1125,-0.63671,1.94755,9.59021,-0.35507,0.29308,0.09854,-31.583,6.364,-25.324,71.879,-12.761,3.422,5.0,43.138,22.9999,120.21971,42.6,NaN,,21.6,,0 / 0,28109,2021-01-13 15:15:43:128
0.30896,2.5049,12.66087,-0.39435,1.69479,9.65104,-0.79002,-0.03421,0.72855,-29.381,11.114,-23.475,63.983,-9.952,2.34,5.0,42.6812,22.9999,120.21971,42.6,NaN,,21.6,,0 / 0,28209,2021-01-13 15:15:43:228
-0.93169,0.14574,12.71356,-0.11324,0.62306,9.78618,-1.05129,-0.33107,0.24557,-28.673,14.719,-22.213,60.804,-3.643,0.663,5.0,42.6812,22.9999,120.21971,42.6,NaN,,21.6,,0 / 0,28309,2021-01-13 15:15:43:328
0.08622,0.77086,10.37596,0.23816,1.06538,9.7457,0.55548,-0.06607,0.39418,-29.16,15.798,-23.486,58.273,-4.133,-1.091,5.0,42.6812,22.9999,120.21971,42.6,NaN,,21.6,,0 / 0,28409,2021-01-13 15:15:43:428
-0.21316,0.32537,8.31619,0.29443,1.27336,9.71917,0.43064,-0.04896,0.07068,-29.412,15.224,-21.823,57.789,-7.461,-1.735,5.0,42.6812,22.9999,120.21971,42.6,NaN,,21.6,,0 / 0,28509,2021-01-13 15:15:43:528
-0.35926,2.18395,5.02775,0.03044,1.91181,9.61844,0.18533,0.31402,0.2546,-25.057,15.333,-24.786,51.813,-11.242,-0.181,5.0,42.9492,22.9999,120.21971,42.6,NaN,,21.6,,0 / 0,28609,2021-01-13 15:15:43:628
-0.11736,2.02348,9.78198,-0.20646,1.56264,9.67915,-0.45531,0.25761,0.24156,-25.935,13.994,-24.596,54.983,-11.059,0.815,5.0,42.9492,22.9999,120.21971,42.6,NaN,,21.6,,0 / 0,28709,2021-01-13 15:15:43:728
-0.77361,1.78398,12.87882,-0.05457,1.32869,9.71607,-0.60186,-0.20823,-0.17159,-25.26,16.551,-24.989,51.202,-7.787,0.322,5.0,42.9492,22.9999,120.21971,42.6,NaN,,21.6,,0 / 0,28809,2021-01-13 15:15:43:828
1.87295,-1.21945,15.37928,0.16883,0.67075,9.78223,-0.56336,-0.26943,0.0043,-24.494,17.232,-23.298,51.814,-3.922,-0.989,5.0,42.7821,22.9999,120.21971,42.6,NaN,,21.6,,0 / 0,28909,2021-01-13 15:15:43:928
1.14964,0.41159,9.04909,0.18589,0.52804,9.79066,0.80004,-0.01357,0.01498,-22.805,17.723,-23.667,50.584,-0.981,-1.394,5.0,42.7821,22.9999,120.21971,42.6,NaN,,21.6,,0 / 0,29009,2021-01-13 15:15:44:028
0.47423,1.18042,7.26715,0.18815,0.91497,9.76206,0.5707,0.17881,-0.14607,-21.642,16.475,-23.26,49.953,-5.354,-1.104,5.0,42.7821,22.9999,120.21971,42.6,NaN,,21.6,,0 / 0,29109,2021-01-13 15:15:44:128
0.27064,2.04983,6.16541,-0.19498,1.48782,9.69117,0.31944,0.08836,-0.29631,-19.595,11.695,-25.834,52.502,-8.726,1.153,5.0,43.8682,22.9999,120.21971,42.6,NaN,,21.6,,0 / 0,29209,2021-01-13 15:15:44:228
-0.29939,1.16844,9.54966,-0.35679,1.37205,9.70364,-0.23079,0.124,-0.32261,-19.081,12.544,-25.132,49.427,-9.307,1.419,5.0,43.8682,22.9999,120.21971,42.6,NaN,,21.6,,0 / 0,29309,2021-01-13 15:15:44:328
0.33292,2.54801,11.15197,-0.30658,1.25069,9.72174,0.14477,-0.15046,0.31137,-16.519,10.552,-26.724,51.322,-7.327,1.806,5.0,43.8682,22.9999,120.21971,42.6,NaN,,21.6,,0 / 0,29409,2021-01-13 15:15:44:428
0.40477,-0.49854,14.35419,-0.05164,1.11327,9.74312,-0.42527,-0.24052,0.1818,-14.707,11.239,-25.302,47.724,-6.518,0.304,5.0,44.003,22.9999,120.21971,42.6,NaN,,21.6,,0 / 0,29509,2021-01-13 15:15:44:528
-0.63949,1.20916,10.44542,0.42818,1.34118,9.70507,0.48577,-0.1069,0.24242,-13.569,8.283,-24.573,50.826,-6.003,-2.18,5.0,44.003,22.9999,120.21971,42.6,NaN,,21.6,,0 / 0,29608,2021-01-13 15:15:44:627
0.15328,1.15646,7.51863,0.49342,1.44937,9.6864,0.26967,-0.1173,0.0348,-11.732,5.992,-24.659,47.798,-8.499,-2.916,5.0,44.003,22.9999,120.21971,42.6,NaN,,21.6,,0 / 0,29709,2021-01-13 15:15:44:728
-0.58919,2.68692,5.35348,0.46058,2.10239,9.56756,0.29939,0.36429,-0.06471,-11.388,2.072,-24.392,53.765,-12.379,-2.756,5.0,43.7533,22.9999,120.21971,42.6,NaN,,21.6,,0 / 0,29811,2021-01-13 15:15:44:830
-0.10059,2.36838,7.46115,0.0308,2.09163,9.58095,-0.16154,0.32252,-0.13607,-8.671,1.568,-25.272,48.816,-12.75,-0.975,5.0,43.7533,22.9999,120.21971,42.6,NaN,,21.6,,0 / 0,29909,2021-01-13 15:15:44:928
-0.47423,1.69536,12.31358,0.26079,1.92975,9.61137,-0.4436,-0.39982,-0.41733,-8.842,-2.79,-23.081,78.977,-11.349,-1.554,5.0,43.7533,22.9999,120.21971,42.6,NaN,,21.6,,0 / 0,30009,2021-01-13 15:15:45:028
1.57836,1.06785,14.0548,0.36485,1.37745,9.70257,-0.51136,0.04376,-0.18787,-8.507,-4.345,-23.716,93.847,-8.075,-2.153,5.0,43.7533,22.9999,120.21971,42.6,NaN,,21.6,,0 / 0,30109,2021-01-13 15:15:45:128
1.0203,0.83552,10.34243,0.13121,1.39535,9.70599,0.44315,0.16894,-0.29738,-8.88,-9.904,-22.667,130.656,-6.955,-1.789,5.0,44.9742,22.9999,120.21971,42.6,NaN,,21.6,,0 / 0,30209,2021-01-13 15:15:45:228
0.17484,1.35526,7.47312,0.08896,1.60486,9.67403,0.36815,0.17579,-0.29945,-8.75,-12.001,-20.925,133.606,-9.419,-0.527,5.0,44.9742,22.9999,120.21971,42.6,NaN,,21.6,,0 / 0,30310,2021-01-13 15:15:45:329
-0.13412,2.23425,4.91278,-0.26828,2.25332,9.54049,0.48805,0.06606,-0.06621,-8.32,-16.846,-19.402,145.109,-13.284,1.611,5.0,44.9742,22.9999,120.21971,42.6,NaN,,21.6,,0 / 0,30409,2021-01-13 15:15:45:428
-0.81433,2.1624,8.3593,-0.37108,2.15781,9.55911,-0.28958,0.10794,-0.07697,-9.357,-20.188,-18.968,147.009,-14.192,1.858,5.0,44.8053,22.9999,120.21971,42.6,NaN,,21.6,,0 / 0,30509,2021-01-13 15:15:45:528
-0.39758,2.45699,11.50884,-0.24713,2.00395,9.59654,-0.47833,-0.48295,0.27317,-13.493,-20.654,-18.979,141.154,-11.791,1.475,5.0,44.8053,22.9999,120.21971,42.6,NaN,,21.6,,0 / 0,30609,2021-01-13 15:15:45:628
0.30896,0.88822,15.57568,0.01005,1.28503,9.72209,-0.76942,0.14422,0.50507,-16.066,-22.499,-18.416,140.59,-7.53,-0.059,5.0,44.8053,22.9999,120.21971,42.6,NaN,,21.6,,0 / 0,30709,2021-01-13 15:15:45:728
0.07425,1.34089,10.47416,0.27627,1.09477,9.74144,0.55609,0.01214,0.54195,-18.677,-21.234,-19.062,135.752,-5.282,-1.097,5.0,44.797,22.9999,120.21971,42.6,NaN,,21.6,,0 / 0,30809,2021-01-13 15:15:45:828
0.37603,0.88582,8.86227,0.29116,1.52285,9.68331,0.70601,-0.11555,0.3929,-22.633,-22.682,-17.711,131.441,-8.933,-1.722,5.0,44.797,22.9999,120.21971,42.6,NaN,,21.6,,0 / 0,30909,2021-01-13 15:15:45:928
-0.04551,1.99953,5.02056,0.36997,2.29654,9.52678,0.73782,0.46079,0.2635,-24.502,-22.643,-14.413,127.655,-13.543,-2.224,5.0,44.797,22.9999,120.21971,42.6,NaN,,21.6,,0 / 0,31009,2021-01-13 15:15:46:028
-0.35926,2.62944,6.39534,-0.09297,2.63797,9.44473,0.14245,0.46968,0.20054,-26.196,-23.879,-13.021,127.094,-15.571,-0.58,5.0,44.797,22.9999,120.21971,42.6,NaN,,21.6,,0 / 0,31109,2021-01-13 15:15:46:128
0.20358,2.18635,10.81905,-0.03893,2.50037,9.48246,-0.46683,-0.62628,-0.39114,-27.28,-22.839,-12.018,125.38,-14.772,0.235,5.0,43.7436,22.9999,120.21971,42.6,NaN,,21.6,,0 / 0,31209,2021-01-13 15:15:46:228
1.27897,0.54332,14.7398,0.31295,1.86427,9.62273,-0.67986,-0.1687,-0.52188,-28.438,-22.216,-12.815,124.518,-10.959,-1.863,5.0,43.7436,22.9999,120.21971,42.6,NaN,,21.6,,0 / 0,31309,2021-01-13 15:15:46:328
-0.09341,0.19125,12.84289,-0.03266,0.92573,9.7628,0.00679,0.43769,-0.31771,-28.195,-21.198,-13.53,124.361,-7.397,-1.128,5.0,43.7436,22.9999,120.21971,42.6,NaN,,21.6,,0 / 0,31409,2021-01-13 15:15:46:428
0.12694,1.55405,6.95818,-0.19118,1.43446,9.69929,0.92543,0.13847,-0.01762,-27.286,-22.704,-13.579,127.311,-8.411,1.129,5.0,44.7362,22.9999,120.21971,42.6,NaN,,21.6,,0 / 0,31509,2021-01-13 15:15:46:528
-0.44309,2.33963,4.94871,-0.45175,2.34192,9.51219,0.62822,0.07555,-0.1796,-27.666,-24.278,-10.724,126.392,-13.816,2.719,5.0,44.7362,22.9999,120.21971,42.6,NaN,,21.6,,0 / 0,31609,2021-01-13 15:15:46:628
-1.28376,2.89769,7.08512,-0.49664,2.58053,9.448,0.05537,0.02952,-0.0831,-26.855,-24.892,-10.739,128.095,-15.299,2.842,5.0,44.7362,22.9999,120.21971,42.6,NaN,,21.6,,0 / 0,31709,2021-01-13 15:15:46:728
0.07185,2.08576,11.64775,-0.45198,2.48744,9.47516,-0.68715,-0.31227,0.35201,-29.81,-22.485,-10.23,122.118,-14.694,2.731,5.0,44.2327,22.9999,120.21971,42.6,NaN,,21.6,,0 / 0,31812,2021-01-13 15:15:46:831
0.36166,1.06785,15.99961,-0.22891,1.55187,9.68038,-0.94761,0.09006,0.45366,-30.202,-21.758,-11.933,123.365,-9.105,1.355,5.0,44.2327,22.9999,120.21971,42.6,NaN,,21.6,,0 / 0,31909,2021-01-13 15:15:46:928
0.06227,1.97798,10.84779,-0.05274,1.42715,9.70211,0.58495,-0.02325,0.48203,-30.826,-19.228,-11.484,119.485,-6.849,0.581,5.0,44.2327,22.9999,120.21971,42.6,NaN,,21.6,,0 / 0,32010,2021-01-13 15:15:47:029
0.15807,0.8475,8.00723,0.13526,1.76814,9.64499,0.60749,-0.37673,0.06619,-31.717,-18.373,-10.176,116.411,-10.387,-0.803,5.0,46.1827,22.9999,120.21971,42.6,NaN,,21.6,,0 / 0,32110,2021-01-13 15:15:47:129
-0.45746,1.78158,4.93913,-0.07422,2.29119,9.53495,0.4564,0.73575,0.11399,-31.717,-18.896,-9.621,116.79,-13.511,0.446,5.0,46.1827,22.9999,120.21971,42.6,NaN,,21.6,,0 / 0,32209,2021-01-13 15:15:47:228
-0.4383,2.47615,6.48635,-0.51057,2.52939,9.46107,0.08046,0.24154,0.10479,-32.88,-18.839,-9.788,115.755,-15.158,2.664,5.0,46.1827,22.9999,120.21971,42.6,NaN,,21.6,,0 / 0,32309,2021-01-13 15:15:47:328
-0.2419,2.72045,9.42272,-0.43886,2.33143,9.51537,-0.43288,-0.54241,-0.25894,-33.105,-20.017,-9.525,117.517,-13.753,2.641,5.0,46.1827,22.9999,120.21971,42.6,NaN,,21.6,,0 / 0,32409,2021-01-13 15:15:47:428
-0.20119,1.59955,13.73147,0.03834,1.69711,9.65861,-0.67544,-0.4163,-0.39366,-30.675,-18.623,-8.415,119.2,-9.966,-0.227,5.0,44.3769,22.9999,120.21971,42.6,NaN,,21.6,,0 / 0,32509,2021-01-13 15:15:47:528
0.81433,0.88343,14.17935,0.06395,1.15068,9.7387,-0.12043,0.16977,-0.06188,-30.575,-20.001,-9.179,120.768,-8.508,-0.516,5.0,44.3769,22.9999,120.21971,42.6,NaN,,21.6,,0 / 0,32609,2021-01-13 15:15:47:628
0.97001,1.32891,7.3893,-0.01562,1.65615,9.66578,1.13129,2.9E-4,-0.08474,-32.612,-19.829,-6.665,119.319,-9.723,0.093,5.0,44.3769,22.9999,120.21971,42.6,NaN,,21.6,,0 / 0,32709,2021-01-13 15:15:47:728
-1.0203,1.94684,4.52718,-0.19682,2.61905,9.4484,0.61886,0.42944,-0.62179,-30.987,-23.819,-4.681,125.235,-15.49,1.193,5.0,45.0097,22.9999,120.21971,42.6,NaN,,21.6,,0 / 0,32809,2021-01-13 15:15:47:828
-0.78798,2.29173,7.61683,-0.68562,2.77409,9.38108,-0.01367,0.20663,-0.35972,-29.94,-24.109,-5.556,125.553,-17.284,3.323,5.0,45.0097,22.9999,120.21971,42.6,NaN,,21.6,,0 / 0,32909,2021-01-13 15:15:47:928
-1.71248,2.23665,9.63349,-0.86864,2.33319,9.48536,-0.57027,0.22758,0.2618,-30.274,-23.068,-7.217,124.958,-13.764,5.232,5.0,45.0097,22.9999,120.21971,42.6,NaN,,21.6,,0 / 0,33009,2021-01-13 15:15:48:028
0.81912,1.11096,15.36491,-0.74944,1.64211,9.6391,-0.78599,-0.2068,0.75833,-32.687,-21.632,-8.421,121.798,-9.64,4.446,5.0,44.095,22.9999,120.21971,42.6,NaN,,21.6,,0 / 0,33109,2021-01-13 15:15:48:128
-1.69811,0.28945,12.62015,-0.47185,0.88988,9.75479,0.28994,-0.26647,0.07527,-33.194,-18.82,-7.991,118.605,-6.337,3.9,5.0,44.095,22.9999,120.21971,42.6,NaN,,21.6,,0 / 0,33209,2021-01-13 15:15:48:228
-0.61314,0.73493,9.33889,-0.27734,1.59232,9.67254,1.04635,-0.46628,0.53622,-35.454,-19.615,-6.04,118.291,-9.345,1.642,5.0,44.095,22.9999,120.21971,42.6,NaN,,21.6,,0 / 0,33309,2021-01-13 15:15:48:328
-0.76643,1.34328,5.89716,0.36771,2.19264,9.55131,0.78249,-0.29959,0.17095,-36.144,-19.062,-1.259,116.589,-12.92,-2.205,5.0,46.5825,22.9999,120.21971,42.6,NaN,,21.6,,0 / 0,33409,2021-01-13 15:15:48:428
0.03114,2.15521,6.11272,0.30299,2.63093,9.44229,0.27982,0.23445,0.31426,-36.789,-18.529,0.4,115.78,-15.437,-2.7,5.0,46.5825,22.9999,120.21971,42.6,NaN,,21.6,,0 / 0,33509,2021-01-13 15:15:48:528
-0.65625,2.34921,9.8682,0.06469,2.21929,9.55201,-0.62354,-0.226,-0.10575,-38.965,-17.669,-1.279,113.861,-13.08,-0.388,5.0,46.5825,22.9999,120.21971,42.6,NaN,,21.6,,0 / 0,33610,2021-01-13 15:15:48:629
0.72571,1.2379,15.65711,0.39128,1.61135,9.66545,-0.5338,-0.35161,-0.14217,-37.891,-16.273,-1.704,111.862,-9.457,-2.318,5.0,46.5825,22.9999,120.21971,42.6,NaN,,21.6,,0 / 0,33709,2021-01-13 15:15:48:728
0.79277,-0.28298,15.50862,0.32648,0.81901,9.76694,-0.06236,0.15888,-0.34656,-39.072,-15.522,-3.043,111.63,-6.406,-1.999,5.0,45.2618,22.9999,120.21971,42.6,NaN,,21.6,,0 / 0,33809,2021-01-13 15:15:48:828
0.62751,0.96007,7.37972,0.10328,1.31586,9.71742,1.02565,0.29535,-0.1032,-37.494,-17.411,-3.369,113.913,-7.711,-0.609,5.0,45.2618,22.9999,120.21971,42.6,NaN,,21.6,,0 / 0,33909,2021-01-13 15:15:48:928
0.03114,2.02588,5.36785,-0.19834,2.21788,9.5505,0.64952,0.22094,-0.10443,-36.338,-18.04,-1.6,115.582,-13.071,1.19,5.0,45.2618,22.9999,120.21971,42.6,NaN,,21.6,,0 / 0,34009,2021-01-13 15:15:49:028
-0.22035,2.48573,6.42408,-0.44225,2.59994,9.44538,0.21194,0.19228,-0.10155,-35.977,-17.933,-2.152,115.479,-14.989,1.885,5.0,46.9262,22.9999,120.21971,42.6,NaN,,21.6,,0 / 0,34109,2021-01-13 15:15:49:128
-0.01677,2.33484,7.63599,-0.49345,2.35561,9.50674,-0.59075,-0.00984,0.13799,-36.093,-15.691,-2.892,112.911,-13.899,2.971,5.0,46.9262,22.9999,120.21971,42.6,NaN,,21.6,,0 / 0,34209,2021-01-13 15:15:49:228
0.26106,1.79356,14.06439,-0.27484,1.48716,9.68934,-0.9614,-0.2483,0.24625,-37.684,-15.724,-3.27,112.184,-8.722,1.625,5.0,46.9262,22.9999,120.21971,42.6,NaN,,21.6,,0 / 0,34309,2021-01-13 15:15:49:328
0.81193,-0.35483,14.33982,0.14926,0.74881,9.77688,-0.27095,-0.41675,0.11998,-38.52,-13.499,-3.191,107.98,-6.154,0.928,5.0,45.805,22.9999,120.21971,42.6,NaN,,21.6,,0 / 0,34410,2021-01-13 15:15:49:429
0.40237,1.40316,9.99754,0.18873,0.92056,9.76152,0.70818,0.13473,0.29724,-39.727,-13.754,-2.798,108.786,-5.386,-1.108,5.0,45.805,22.9999,120.21971,42.6,NaN,,21.6,,0 / 0,34509,2021-01-13 15:15:49:528
-0.38561,1.21155,7.39169,0.2464,1.7661,9.64316,0.55776,0.28713,-0.24116,-38.013,-11.847,0.724,107.258,-10.375,-1.464,5.0,45.805,22.9999,120.21971,42.6,NaN,,21.6,,0 / 0,34609,2021-01-13 15:15:49:628
-0.64667,2.43783,5.1954,-0.37071,2.29073,9.52815,0.43547,0.58886,-0.06357,-39.471,-14.723,-1.186,110.387,-12.152,0.296,5.0,46.6825,22.9999,120.21971,42.6,NaN,,21.6,,0 / 0,34709,2021-01-13 15:15:49:728
-0.38082,1.91571,7.08752,-0.52711,2.261,9.52788,-0.3044,-0.14977,-0.17172,-38.272,-13.136,-1.616,108.42,-13.33,3.167,5.0,46.6825,22.9999,120.21971,42.6,NaN,,21.6,,0 / 0,34810,2021-01-13 15:15:49:829
-0.47902,1.59476,12.91475,-0.07859,1.73577,9.65149,-0.64109,-0.6814,-0.24308,-37.915,-12.846,0.088,108.683,-10.195,0.467,5.0,46.6825,22.9999,120.21971,42.6,NaN,,21.6,,0 / 0,34910,2021-01-13 15:15:49:929
0.70655,0.33016,15.54454,-0.0793,0.78276,9.77504,-0.86094,0.14875,-0.17136,-39.195,-12.554,-3.36,107.763,-7.622,0.092,5.0,46.6825,22.9999,120.21971,42.6,NaN,,21.6,,0 / 0,35010,2021-01-13 15:15:50:029
1.12569,0.81876,10.03586,-0.2205,0.55773,9.7883,0.28175,0.24115,-0.20121,-37.84,-13.615,-4.52,109.832,-3.26,1.29,5.0,44.6815,22.9999,120.21971,42.6,NaN,,21.6,,0 / 0,35111,2021-01-13 15:15:50:130
-0.50057,1.19,6.44564,-0.33493,1.64148,9.66249,0.95708,0.32626,-0.44179,-38.706,-15.914,-1.656,111.861,-9.636,1.985,5.0,44.6815,22.9999,120.21971,42.6,NaN,,21.6,,0 / 0,35213,2021-01-13 15:15:50:232
-0.80954,2.18635,4.50323,-0.70363,2.43315,9.47392,0.63784,0.19467,-0.28301,-36.654,-15.39,-1.865,111.644,-12.628,3.56,5.0,44.6815,22.9999,120.21971,42.6,NaN,,21.6,,0 / 0,35309,2021-01-13 15:15:50:328
-0.38561,0.7014,9.45386,-0.77867,2.3325,9.49334,-0.8856,-0.18398,-0.02091,-35.971,-16.663,-3.394,114.55,-13.76,4.689,5.0,45.3537,22.9999,120.21971,42.6,NaN,,21.6,,0 / 0,35409,2021-01-13 15:15:50:428
-0.10299,3.00307,11.04658,-0.48554,1.46881,9.68386,-0.52845,-0.2153,0.46656,-38.549,-14.638,-2.496,110.787,-8.614,2.87,5.0,45.3537,22.9999,120.21971,42.6,NaN,,21.6,,0 / 0,35509,2021-01-13 15:15:50:528
-0.61554,-0.55362,16.82591,-0.35215,0.68575,9.7763,-0.99523,-0.4853,-0.07512,-41.053,-11.254,-3.777,104.536,-7.888,3.316,5.0,45.3537,22.9999,120.21971,42.6,NaN,,21.6,,0 / 0,35610,2021-01-13 15:15:50:629
0.57961,1.46304,10.77115,-0.11039,0.75474,9.77694,0.73114,-0.19308,0.24749,-41.335,-10.361,-2.431,103.505,-4.414,0.647,5.0,45.7047,22.9999,120.21971,42.6,NaN,,21.6,,0 / 0,35709,2021-01-13 15:15:50:728
-0.42872,1.2834,6.00254,-0.01075,1.48733,9.6932,0.91264,0.00528,-0.03789,-41.676,-10.313,-1.504,102.859,-8.723,0.064,5.0,45.7047,22.9999,120.21971,42.6,NaN,,21.6,,0 / 0,35809,2021-01-13 15:15:50:828
-0.74487,2.67016,4.18468,-0.22639,2.49284,9.48182,0.86396,0.28595,0.13601,-41.404,-9.937,-0.563,103.168,-12.159,0.188,5.0,45.7047,22.9999,120.21971,42.6,NaN,,21.6,,0 / 0,35909,2021-01-13 15:15:50:928
0.22514,2.07378,9.31494,-0.38158,2.42791,9.49368,-0.2156,0.11313,-0.14287,-42.465,-10.141,0.214,103.54,-14.334,2.302,5.0,45.1362,22.9999,120.21971,42.6,NaN,,21.6,,0 / 0,36009,2021-01-13 15:15:51:028
-0.84786,1.92289,11.99504,-0.17272,2.12269,9.5726,-0.31472,-0.64518,-0.54337,-42.672,-9.917,-0.79,102.727,-12.501,1.034,5.0,45.1362,22.9999,120.21971,42.6,NaN,,21.6,,0 / 0,36109,2021-01-13 15:15:51:128
0.66104,1.35047,14.84758,-0.21981,1.53169,9.6838,-0.99388,0.41629,-0.17514,-40.661,-10.854,0.367,104.74,-11.739,0.117,5.0,45.1362,22.9999,120.21971,42.6,NaN,,21.6,,0 / 0,36209,2021-01-13 15:15:51:228
0.41435,1.65943,10.43584,-0.49288,1.16541,9.72467,0.17853,0.34403,-0.14354,-42.902,-12.507,-2.384,106.718,-6.825,2.901,5.0,45.9804,22.9999,120.21971,42.6,NaN,,21.6,,0 / 0,36308,2021-01-13 15:15:51:327
-0.05509,1.8702,7.3366,-0.15005,1.99107,9.60122,0.60915,0.19062,-0.42244,-42.301,-14.484,1.628,108.754,-11.714,0.895,5.0,45.9804,22.9999,120.21971,42.6,NaN,,21.6,,0 / 0,36409,2021-01-13 15:15:51:428
-0.99635,2.31329,4.69244,-0.62871,2.67962,9.41248,0.63352,0.31938,-0.39754,-41.626,-16.588,1.269,112.354,-13.849,2.776,5.0,45.9804,22.9999,120.21971,42.6,NaN,,21.6,,0 / 0,36509,2021-01-13 15:15:51:528
-0.84786,1.57321,7.10189,-0.62607,2.69916,9.40707,-0.82387,0.0944,0.11073,-40.52,-16.099,1.029,111.885,-15.976,3.808,5.0,45.9804,22.9999,120.21971,42.6,NaN,,21.6,,0 / 0,36609,2021-01-13 15:15:51:628
0.21795,2.44502,11.12323,-0.44512,1.73031,9.64253,-0.84906,-0.35609,0.53413,-42.816,-15.23,-2.418,108.928,-10.163,2.643,5.0,45.8498,22.9999,120.21971,42.6,NaN,,21.6,,0 / 0,36709,2021-01-13 15:15:51:728
0.33771,0.02838,17.34086,-0.11281,0.63842,9.7852,-1.23367,-0.15135,0.15502,-44.917,-11.471,-0.591,103.575,-8.354,1.146,5.0,45.8498,22.9999,120.21971,42.6,NaN,,21.6,,0 / 0,36809,2021-01-13 15:15:51:828
0.17724,0.71338,10.95797,0.03834,0.57771,9.78954,0.53579,-0.14741,0.17031,-45.859,-12.573,0.417,105.743,-3.377,-0.224,5.0,45.8498,22.9999,120.21971,42.6,NaN,,21.6,,0 / 0,36909,2021-01-13 15:15:51:928
-0.79756,0.00204,8.57486,0.01543,1.0525,9.74999,0.31643,0.27722,-0.29269,-44.139,-13.322,0.809,106.489,-6.161,-0.091,5.0,46.7737,22.9999,120.21971,42.6,NaN,,21.6,,0 / 0,37009,2021-01-13 15:15:52:028
-0.70655,1.61153,4.65411,-0.4811,1.61559,9.66068,0.5905,0.46391,0.08869,-45.541,-13.101,0.558,105.975,-7.492,1.327,5.0,46.7737,22.9999,120.21971,42.6,NaN,,21.6,,0 / 0,37109,2021-01-13 15:15:52:128
-0.35926,1.41274,6.5103,-0.58417,1.75727,9.63022,-0.27796,-0.05239,0.06528,-47.017,-12.263,-1.207,104.487,-10.323,3.471,5.0,46.7737,22.9999,120.21971,42.6,NaN,,21.6,,0 / 0,37209,2021-01-13 15:15:52:228
-0.65625,1.4319,11.25735,-0.36613,1.26282,9.71811,-0.62811,-0.36167,-0.10591,-48.165,-13.522,-0.708,106.245,-7.399,2.158,5.0,46.5514,22.9999,120.21971,42.6,NaN,,21.6,,0 / 0,37308,2021-01-13 15:15:52:327
0.04551,-0.86259,15.9086,-0.20878,0.21737,9.80202,-1.11393,-0.02342,-0.35392,-49.472,-14.609,-2.392,106.86,-5.199,1.323,5.0,46.5514,22.9999,120.21971,42.6,NaN,,21.6,,0 / 0,37409,2021-01-13 15:15:52:428
0.85983,0.18406,11.00826,-0.25325,-0.028,9.80334,0.32539,0.0773,-0.13712,-50.443,-15.206,-2.132,106.69,0.164,1.48,5.0,46.5514,22.9999,120.21971,42.6,NaN,,21.6,,0 / 0,37508,2021-01-13 15:15:52:527
0.08143,0.34453,9.01556,-0.23926,0.84553,9.7672,0.65009,0.25935,-0.41059,-51.793,-17.516,0.159,109.141,-4.946,1.403,5.0,46.5514,22.9999,120.21971,42.6,NaN,,21.6,,0 / 0,37609,2021-01-13 15:15:52:628
-0.65625,2.29652,4.42419,-0.68228,1.77322,9.62084,0.91781,0.37806,-0.32085,-51.558,-20.232,0.525,111.34,-7.214,2.701,5.0,45.9858,22.9999,120.21971,42.6,NaN,,21.6,,0 / 0,37709,2021-01-13 15:15:52:728
-0.84067,1.86541,6.62048,-0.70368,2.15446,9.54115,-0.35559,0.15931,-0.09239,-52.772,-19.791,1.783,111.541,-12.691,4.218,5.0,45.9858,22.9999,120.21971,42.6,NaN,,21.6,,0 / 0,37809,2021-01-13 15:15:52:828
-0.46225,2.41628,11.56153,-0.8192,1.715,9.62071,-0.4199,-0.07745,0.24273,-55.101,-20.687,-0.134,111.414,-10.072,4.867,5.0,45.9858,22.9999,120.21971,42.6,NaN,,21.6,,0 / 0,37909,2021-01-13 15:15:52:928
0.13173,1.08461,14.48831,-0.56838,0.86824,9.75159,-1.04526,0.03976,0.32261,-60.862,-15.582,-1.83,104.705,-8.389,3.068,5.0,46.1544,22.9999,120.21971,42.6,NaN,,21.6,,0 / 0,38009,2021-01-13 15:15:53:028
-1.07539,0.40201,11.35794,-0.35066,0.49435,9.7879,-0.2205,-0.5124,0.05884,-64.351,-15.683,0.461,104.125,-2.889,2.052,5.0,46.1544,22.9999,120.21971,42.6,NaN,,21.6,,0 / 0,38109,2021-01-13 15:15:53:128
-0.98677,-0.1273,9.76043,-0.09193,0.94129,9.76094,0.50668,-0.11096,0.15443,-67.317,-10.935,3.518,99.657,-5.508,0.54,5.0,46.1544,22.9999,120.21971,42.6,NaN,,21.6,,0 / 0,38209,2021-01-13 15:15:53:228
-0.6802,1.2355,5.59778,-0.20275,1.54364,9.68228,0.56868,0.2065,0.28745,-67.559,-9.152,3.318,97.837,-7.318,0.318,5.0,46.6455,22.9999,120.21971,42.6,NaN,,21.6,,0 / 0,38310,2021-01-13 15:15:53:329
-0.8766,1.82948,5.95225,-0.43777,1.73087,9.64276,-0.03327,0.15717,0.10903,-67.494,-3.565,1.939,94.13,-10.166,2.599,5.0,46.6455,22.9999,120.21971,42.6,NaN,,21.6,,0 / 0,38409,2021-01-13 15:15:53:428
-1.02988,1.36963,9.50655,-0.45185,1.69368,9.64871,-0.09543,-0.21497,-0.06454,-67.971,-1.451,1.544,91.587,-9.945,2.681,5.0,46.6455,22.9999,120.21971,42.6,NaN,,21.6,,0 / 0,38509,2021-01-13 15:15:53:528
-0.58919,0.82834,16.07625,-0.05684,0.98421,9.75697,-1.21425,-0.40326,-0.28102,-68.765,-0.466,2.239,90.482,-9.111,1.379,5.0,46.5589,22.9999,120.21971,42.6,NaN,,21.6,,0 / 0,38609,2021-01-13 15:15:53:628
-0.02874,-0.71409,11.81061,0.07408,0.34391,9.80034,-0.84389,-0.12332,-0.29005,-67.764,0.716,1.28,89.172,-2.01,-0.433,5.0,46.5589,22.9999,120.21971,42.6,NaN,,21.6,,0 / 0,38710,2021-01-13 15:15:53:729
0.18442,0.15772,9.07304,-0.04953,0.73205,9.77916,0.73667,-0.09918,-0.22927,-65.127,0.043,0.436,90.022,-4.281,0.29,5.0,46.5589,22.9999,120.21971,42.6,NaN,,21.6,,0 / 0,38809,2021-01-13 15:15:53:828
-0.1964,1.32652,5.64089,-0.14389,1.42917,9.70089,0.59723,0.15751,-0.24316,-63.807,-0.223,-0.079,89.997,-6.375,-0.029,5.0,46.5589,22.9999,120.21971,42.6,NaN,,21.6,,0 / 0,38909,2021-01-13 15:15:53:928
-0.57721,1.46783,7.35816,-0.45058,1.65126,9.65612,-0.14946,0.14143,-0.06545,-60.657,0.343,-1.622,90.134,-9.694,2.672,5.0,48.1971,22.9999,120.21971,42.6,NaN,,21.6,,0 / 0,39009,2021-01-13 15:15:54:028
-0.10299,0.98881,12.17946,-0.41152,1.4875,9.68444,-0.19755,-0.26008,0.15386,-59.493,1.741,-1.426,88.302,-8.724,2.433,5.0,48.1971,22.9999,120.21971,42.6,NaN,,21.6,,0 / 0,39109,2021-01-13 15:15:54:128
-0.55326,2.18874,12.24891,-0.26555,1.19021,9.73053,-0.09902,0.14626,0.54797,-58.565,6.246,-1.373,84.293,-7.476,1.363,5.0,48.1971,22.9999,120.21971,42.6,NaN,,21.6,,0 / 0,39209,2021-01-13 15:15:54:228
-0.77361,0.07628,9.58079,-0.19074,1.22613,9.72783,0.01533,-0.29689,0.30421,-57.381,7.967,-4.167,81.727,-7.183,1.123,5.0,46.6944,22.9999,120.21971,42.6,NaN,,21.6,,0 / 0,39309,2021-01-13 15:15:54:328
0.15568,0.68463,8.27787,-0.07394,1.73911,9.65093,0.32378,0.14147,0.35295,-52.479,10.31,-4.211,78.611,-10.215,0.439,5.0,46.6944,22.9999,120.21971,42.6,NaN,,21.6,,0 / 0,39409,2021-01-13 15:15:54:428
-0.6802,0.68703,9.44428,-0.18775,1.69665,9.65694,-0.10569,0.1157,0.01918,-52.091,11.401,-5.322,77.438,-10.456,0.75,5.0,46.6944,22.9999,120.21971,42.6,NaN,,21.6,,0 / 0,39509,2021-01-13 15:15:54:528
-0.2946,0.98881,9.08501,-0.19893,1.65518,9.66391,-0.18175,-0.00428,-0.09678,-52.063,11.593,-3.164,76.857,-9.717,1.179,5.0,47.3269,22.9999,120.21971,42.6,NaN,,21.6,,0 / 0,39609,2021-01-13 15:15:54:628