ACCELEROMETER X (m/s²),ACCELEROMETER Y (m/s²),ACCELEROMETER Z (m/s²),GRAVITY X (m/s²),GRAVITY Y (m/s²),GRAVITY Z (m/s²),GYROSCOPE X (rad/s),GYROSCOPE Y (rad/s),GYROSCOPE Z (rad/s),MAGNETIC FIELD X (μT),MAGNETIC FIELD Y (μT),MAGNETIC FIELD Z (μT),ORIENTATION Z (azimuth °),ORIENTATION X (pitch °),ORIENTATION Y (roll °),PROXIMITY (m),SOUND LEVEL (dB),LOCATION Latitude : ,LOCATION Longitude : ,LOCATION Altitude ( m),LOCATION Altitude-google ( m),LOCATION Speed ( m/s),LOCATION Accuracy ( m),LOCATION ORIENTATION (°),Satellites in range,Time since start in ms ,YYYY-MO-DD HH-MI-SS_SSS
-0.10059,2.73722,7.70545,-0.36171,1.62581,9.66418,0.24829,-0.01642,-0.26333,-49.012,5.256,4.903,85.547,-9.543,2.143,5.0,40.2076,22.9999,120.21971,42.6,NaN,,21.6,,0 / 0,8,2021-01-13 15:21:29:810
-0.37363,2.48334,7.6312,-0.37607,1.74287,9.6432,0.03541,-0.08252,-0.33314,-49.938,4.278,5.221,86.892,-10.237,2.233,5.0,40.2076,22.9999,120.21971,42.6,NaN,,21.6,,0 / 0,109,2021-01-13 15:21:29:911
-0.37363,2.5049,8.51738,-0.24824,1.81138,9.63471,-0.23053,-0.01004,0.06087,-49.718,2.889,6.236,88.158,-10.644,1.476,5.0,40.2076,22.9999,120.21971,42.6,NaN,,21.6,,0 / 0,209,2021-01-13 15:21:30:011
-1.22868,1.94684,12.71595,-0.21203,1.42214,9.70067,-0.52868,-0.06049,0.10011,-49.701,3.587,4.813,86.473,-8.338,1.252,5.0,40.87,22.9999,120.21971,42.6,NaN,,21.6,,0 / 0,308,2021-01-13 15:21:30:110
0.52452,0.5553,13.81769,0.02924,1.1321,9.74104,-0.32563,-0.3343,0.44784,-49.498,8.382,4.998,81.671,-7.619,0.931,5.0,40.87,22.9999,120.21971,42.6,NaN,,21.6,,0 / 0,409,2021-01-13 15:21:30:211
-0.18203,0.59362,11.94235,0.20633,1.06182,9.74681,0.29418,-0.07717,0.37482,-50.5,10.262,5.349,79.449,-6.216,-1.213,5.0,40.87,22.9999,120.21971,42.6,NaN,,21.6,,0 / 0,508,2021-01-13 15:21:30:310
-0.07425,0.92175,9.03951,0.25105,1.83952,9.62931,0.84233,-0.01262,0.18814,-49.3,12.774,4.831,75.898,-8.052,-1.375,5.0,40.5531,22.9999,120.21971,42.6,NaN,,21.6,,0 / 0,608,2021-01-13 15:21:30:410
-0.23711,1.5301,6.55341,0.17454,2.05313,9.58773,0.45589,0.36979,0.05899,-48.33,12.911,4.495,75.704,-10.812,-1.493,5.0,40.5531,22.9999,120.21971,42.6,NaN,,21.6,,0 / 0,709,2021-01-13 15:21:30:511
-0.32334,3.02702,3.79428,-0.09542,2.63475,9.4456,0.54056,0.14385,0.23417,-44.836,14.203,0.611,73.771,-15.585,0.579,5.0,40.5531,22.9999,120.21971,42.6,NaN,,21.6,,0 / 0,808,2021-01-13 15:21:30:610
0.17963,1.35047,11.50165,0.33652,1.82473,9.62951,-1.18209,-0.07747,0.07891,-44.836,14.203,0.611,73.771,-15.585,0.579,5.0,40.5531,22.9999,120.21971,42.6,NaN,,21.6,,0 / 0,908,2021-01-13 15:21:30:710
0.60116,1.71931,13.47759,0.23687,1.15157,9.73592,-0.98454,0.30538,0.16235,-42.514,17.094,0.38,68.417,-6.744,-1.394,5.0,39.112,22.9999,120.21971,42.6,NaN,,21.6,,0 / 0,1008,2021-01-13 15:21:30:810
0.87181,-1.06856,14.9817,0.23419,0.89123,9.76326,-0.03285,-0.24702,-0.46481,-42.514,17.094,0.38,68.417,-6.744,-1.394,5.0,39.112,22.9999,120.21971,42.6,NaN,,21.6,,0 / 0,1108,2021-01-13 15:21:30:910
-0.09341,-1.03982,11.05616,0.18888,0.95335,9.75837,0.00678,0.05185,-0.43275,-41.13,13.851,0.234,71.13,-5.579,-1.109,5.0,39.112,22.9999,120.21971,42.6,NaN,,21.6,,0 / 0,1208,2021-01-13 15:21:31:010
0.55326,1.19718,6.96537,0.08555,1.53045,9.68611,0.77361,0.23189,-0.03666,-41.434,12.052,-1.073,73.598,-8.978,-0.506,5.0,40.1135,22.9999,120.21971,42.6,NaN,,21.6,,0 / 0,1308,2021-01-13 15:21:31:110
-0.74008,2.10492,5.75106,-0.18068,2.21875,9.55065,0.50984,0.17434,-0.28342,-39.669,11.389,-3.915,74.054,-13.076,1.084,5.0,40.1135,22.9999,120.21971,42.6,NaN,,21.6,,0 / 0,1408,2021-01-13 15:21:31:210
0.06946,2.65818,7.23841,-0.41684,2.31937,9.51931,-0.26809,0.067,0.19736,-38.713,9.391,-4.366,76.652,-13.681,2.507,5.0,40.1135,22.9999,120.21971,42.6,NaN,,21.6,,0 / 0,1510,2021-01-13 15:21:31:312
0.26346,2.07618,11.06335,-0.36645,2.05111,9.58275,-0.56423,-0.00908,0.27517,-38.84,11.549,-5.439,72.34,-12.073,2.19,5.0,39.9726,22.9999,120.21971,42.6,NaN,,21.6,,0 / 0,1608,2021-01-13 15:21:31:410
1.05623,1.34807,14.23443,-0.48961,1.50501,9.6781,-0.56066,0.24558,0.42809,-36.745,13.463,-6.048,70.11,-8.828,2.896,5.0,39.9726,22.9999,120.21971,42.6,NaN,,21.6,,0 / 0,1708,2021-01-13 15:21:31:510
-0.71852,-0.15125,14.23443,-0.2683,0.64865,9.7815,-0.9015,-0.32061,-0.04873,-35.623,11.758,-5.587,71.202,-3.793,1.571,5.0,39.9726,22.9999,120.21971,42.6,NaN,,21.6,,0 / 0,1808,2021-01-13 15:21:31:610
-0.93408,-0.25663,10.14124,-0.26513,0.99124,9.75282,0.72043,-0.26896,-0.05272,-35.385,10.694,-5.875,71.952,-5.801,1.557,5.0,39.4726,22.9999,120.21971,42.6,NaN,,21.6,,0 / 0,1908,2021-01-13 15:21:31:710
-0.74727,0.71338,6.266,-0.15244,1.68356,9.65985,0.59753,0.04291,0.08019,-34.198,8.118,-7.362,75.232,-9.885,0.904,5.0,39.4726,22.9999,120.21971,42.6,NaN,,21.6,,0 / 0,2009,2021-01-13 15:21:31:811
-0.47662,2.59112,6.12709,-0.29158,2.46,9.48861,0.2057,0.17623,0.21913,-34.52,7.624,-8.367,74.938,-14.528,1.76,5.0,39.4726,22.9999,120.21971,42.6,NaN,,21.6,,0 / 0,2108,2021-01-13 15:21:31:910
-0.40716,1.58039,9.41074,-0.37085,1.80551,9.63187,-0.79388,-0.23852,-0.23811,-33.738,9.439,-8.51,73.016,-13.205,2.403,5.0,38.9073,22.9999,120.21971,42.6,NaN,,21.6,,0 / 0,2208,2021-01-13 15:21:32:010
-0.66583,0.52416,12.90756,-0.23807,1.41057,9.70175,-0.8066,-0.17812,-0.15944,-34.024,7.817,-6.419,75.766,-8.27,1.406,5.0,38.9073,22.9999,120.21971,42.6,NaN,,21.6,,0 / 0,2307,2021-01-13 15:21:32:109
0.80235,-0.86498,14.82602,-0.12993,0.48246,9.79391,-0.74175,-0.09707,-0.05749,-33.146,7.085,-6.334,77.612,-2.82,0.76,5.0,38.9073,22.9999,120.21971,42.6,NaN,,21.6,,0 / 0,2408,2021-01-13 15:21:32:210
0.7305,-0.03628,10.36159,-0.1077,0.71229,9.78016,0.70381,0.10311,-0.25503,-32.872,6.19,-7.449,79.396,-1.535,0.186,5.0,38.9073,22.9999,120.21971,42.6,NaN,,21.6,,0 / 0,2508,2021-01-13 15:21:32:310
-0.15808,1.36244,6.11032,-0.13768,1.30615,9.7183,0.96845,0.07915,-0.40344,-32.487,3.014,-6.609,83.168,-7.654,0.812,5.0,39.2869,22.9999,120.21971,42.6,NaN,,21.6,,0 / 0,2608,2021-01-13 15:21:32:410
-0.05509,2.3085,4.3188,-0.36776,2.31677,9.52196,0.67998,0.2647,-0.26633,-32.303,1.081,-8.117,85.451,-13.665,2.212,5.0,39.2869,22.9999,120.21971,42.6,NaN,,21.6,,0 / 0,2710,2021-01-13 15:21:32:512
-0.77361,2.19353,6.80969,-0.57805,2.40715,9.48904,-0.17458,0.29006,-0.08705,-32.065,1.361,-9.844,84.835,-14.209,3.486,5.0,39.2869,22.9999,120.21971,42.6,NaN,,21.6,,0 / 0,2808,2021-01-13 15:21:32:610
-0.11975,1.94924,9.65983,-0.51577,1.75338,9.63483,-0.65382,-0.29889,0.09056,-32.211,-0.939,-7.993,89.755,-10.3,3.064,5.0,39.7061,22.9999,120.21971,42.6,NaN,,21.6,,0 / 0,2908,2021-01-13 15:21:32:710
-0.21556,0.93133,12.51716,-0.43794,0.7514,9.76801,-0.97181,0.00779,0.22859,-32.422,1.596,-10.218,85.327,-4.394,2.567,5.0,39.7061,22.9999,120.21971,42.6,NaN,,21.6,,0 / 0,3008,2021-01-13 15:21:32:810
-1.05384,-1.3416,14.23204,-0.33388,-0.08403,9.80061,-0.28109,-0.28713,0.02207,-33.041,2.55,-10.546,84.855,-0.128,3.083,5.0,39.7061,22.9999,120.21971,42.6,NaN,,21.6,,0 / 0,3109,2021-01-13 15:21:32:911
-0.74487,-0.06742,9.27422,-0.32762,0.43361,9.79158,0.76786,-0.05774,0.25738,-31.423,0.846,-10.735,87.371,-2.534,1.916,5.0,40.344,22.9999,120.21971,42.6,NaN,,21.6,,0 / 0,3208,2021-01-13 15:21:33:010
-0.27064,0.54332,7.48749,-0.28564,1.2388,9.7239,0.60803,0.00276,0.1521,-32.483,0.612,-10.545,85.995,-7.257,1.683,5.0,40.344,22.9999,120.21971,42.6,NaN,,21.6,,0 / 0,3308,2021-01-13 15:21:33:110
-0.97001,2.12408,5.56185,-0.46335,1.84512,9.62036,0.45113,0.16342,-0.00948,-30.071,-1.419,-10.372,89.209,-9.037,1.991,5.0,40.344,22.9999,120.21971,42.6,NaN,,21.6,,0 / 0,3408,2021-01-13 15:21:33:210
-0.12694,1.8702,6.75939,-0.54953,1.99374,9.58611,-0.10229,0.13508,-0.03479,-31.373,-1.695,-10.781,90.156,-11.73,3.281,5.0,37.5041,22.9999,120.21971,42.6,NaN,,21.6,,0 / 0,3510,2021-01-13 15:21:33:312
-0.8287,1.52531,11.93995,-0.46388,1.56801,9.66936,-0.50293,-0.35223,-0.22555,-31.217,-4.458,-11.032,94.411,-9.201,2.747,5.0,37.5041,22.9999,120.21971,42.6,NaN,,21.6,,0 / 0,3608,2021-01-13 15:21:33:410
0.76882,0.14335,14.89308,-0.10933,0.79796,9.77352,-0.76715,-0.33142,-0.10192,-30.661,-3.73,-10.564,95.725,-4.667,0.641,5.0,37.5041,22.9999,120.21971,42.6,NaN,,21.6,,0 / 0,3708,2021-01-13 15:21:33:510
0.2898,-0.52488,13.5231,0.09626,0.37676,9.79894,-0.64368,-0.3184,-0.06699,-31.523,-4.331,-9.278,96.506,-2.202,-0.563,5.0,37.5041,22.9999,120.21971,42.6,NaN,,21.6,,0 / 0,3808,2021-01-13 15:21:33:610
0.3401,0.32537,9.26943,0.00536,1.19197,9.73394,0.74676,0.03823,-0.1339,-30.69,-4.775,-9.916,96.89,-6.981,-0.032,5.0,39.5354,22.9999,120.21971,42.6,NaN,,21.6,,0 / 0,3908,2021-01-13 15:21:33:710
-0.03353,2.40191,5.2457,-0.25265,2.13596,9.56788,0.70237,0.34289,0.01941,-29.454,-7.593,-8.682,101.629,-12.58,1.513,5.0,39.5354,22.9999,120.21971,42.6,NaN,,21.6,,0 / 0,4008,2021-01-13 15:21:33:810
-0.33771,2.66537,6.15583,-0.44158,2.41675,9.49393,0.13332,0.24681,0.0717,-30.913,-8.351,-9.318,100.634,-14.267,2.663,5.0,39.5354,22.9999,120.21971,42.6,NaN,,21.6,,0 / 0,4108,2021-01-13 15:21:33:910
0.28022,2.17437,9.46343,-0.5078,2.13658,9.55759,-0.51421,-0.12398,0.21435,-29.563,-6.118,-9.697,97.524,-12.584,3.041,5.0,39.862,22.9999,120.21971,42.6,NaN,,21.6,,0 / 0,4208,2021-01-13 15:21:34:010
-0.46225,1.97558,11.10646,-0.44371,1.46536,9.68639,-0.68232,0.08693,0.22601,-33.077,-8.101,-9.485,101.503,-8.594,2.623,5.0,39.862,22.9999,120.21971,42.6,NaN,,21.6,,0 / 0,4308,2021-01-13 15:21:34:110
-0.68499,0.12419,14.96014,-0.36097,1.01187,9.74763,-0.3302,-0.11996,0.08325,-32.026,-6.421,-10.191,98.889,-5.922,2.121,5.0,39.862,22.9999,120.21971,42.6,NaN,,21.6,,0 / 0,4408,2021-01-13 15:21:34:210
-0.80954,0.6535,10.82624,-0.26993,1.05841,9.74563,0.81137,-0.05475,0.24075,-31.991,-6.148,-9.167,98.972,-6.196,1.587,5.0,40.5738,22.9999,120.21971,42.6,NaN,,21.6,,0 / 0,4508,2021-01-13 15:21:34:310
-0.47183,0.96965,7.12105,-0.14236,1.90486,9.61882,0.85543,0.1074,0.15625,-30.414,-7.78,-8.466,101.962,-11.2,0.848,5.0,40.5738,22.9999,120.21971,42.6,NaN,,21.6,,0 / 0,4608,2021-01-13 15:21:34:410
-0.4862,2.31568,3.2985,-0.20412,2.45458,9.4923,1.02303,0.19833,0.22988,-32.586,-7.954,-6.637,100.548,-14.495,1.232,5.0,40.5738,22.9999,120.21971,42.6,NaN,,21.6,,0 / 0,4708,2021-01-13 15:21:34:510
-0.39519,1.94205,7.82041,-0.45946,2.97001,9.33479,-0.71313,0.16406,-0.14928,-30.745,-8.447,-8.581,99.692,-17.629,2.818,5.0,39.8582,22.9999,120.21971,42.6,NaN,,21.6,,0 / 0,4808,2021-01-13 15:21:34:610
-0.94606,1.57321,10.48853,-0.52124,1.9129,9.60414,-1.03367,-0.14158,-0.42384,-30.816,-7.308,-8.667,99.816,-11.248,3.107,5.0,39.8582,22.9999,120.21971,42.6,NaN,,21.6,,0 / 0,4908,2021-01-13 15:21:34:710
-0.22274,1.18521,13.35784,-0.50779,1.49111,9.67931,-0.5139,-0.23663,-0.08952,-32.095,-8.165,-8.477,102.111,-8.746,3.003,5.0,39.8582,22.9999,120.21971,42.6,NaN,,21.6,,0 / 0,5008,2021-01-13 15:21:34:810
0.22035,-0.0794,15.53017,-0.30202,0.90275,9.76034,-0.44398,-0.1468,-0.09038,-32.148,-10.379,-8.044,106.115,-5.282,1.772,5.0,39.8582,22.9999,120.21971,42.6,NaN,,21.6,,0 / 0,5108,2021-01-13 15:21:34:910
0.46944,0.58644,10.17477,-0.13286,1.25196,9.7255,0.99129,-0.03677,-0.07228,-32.433,-10.459,-7.345,105.799,-7.335,0.783,5.0,40.3539,22.9999,120.21971,42.6,NaN,,21.6,,0 / 0,5208,2021-01-13 15:21:35:010
0.09101,1.80074,5.89477,-0.1749,1.89433,9.62036,1.32595,0.18042,-0.08619,-31.543,-11.379,-8.566,105.911,-11.138,1.042,5.0,40.3539,22.9999,120.21971,42.6,NaN,,21.6,,0 / 0,5308,2021-01-13 15:21:35:110
-0.74487,2.90248,5.15708,-0.44105,3.09387,9.29537,1.00472,0.20389,-0.23474,-31.998,-12.871,-7.027,108.74,-15.535,1.842,5.0,40.3539,22.9999,120.21971,42.6,NaN,,21.6,,0 / 0,5408,2021-01-13 15:21:35:210
-1.20952,3.10846,7.65276,-0.75025,2.64517,9.41332,-0.65589,0.23898,-0.06113,-30.256,-12.73,-5.94,110.162,-17.844,3.711,5.0,39.0694,22.9999,120.21971,42.6,NaN,,21.6,,0 / 0,5508,2021-01-13 15:21:35:310
-1.36999,2.43544,12.35669,-0.72908,2.38128,9.48516,-1.08935,0.09026,0.10156,-30.85,-12.021,-8.38,108.064,-14.053,4.395,5.0,39.0694,22.9999,120.21971,42.6,NaN,,21.6,,0 / 0,5608,2021-01-13 15:21:35:410
-1.0227,1.18521,14.3973,-0.87104,1.23093,9.69002,-1.0094,0.19765,0.24185,-31.935,-11.263,-10.003,107.007,-7.211,5.137,5.0,39.0694,22.9999,120.21971,42.6,NaN,,21.6,,0 / 0,5709,2021-01-13 15:21:35:511
-0.87899,-0.1752,13.959,-0.51984,0.76745,9.76274,0.54625,-0.26697,0.25301,-32.602,-9.711,-10.829,105.414,-4.488,3.048,5.0,40.6365,22.9999,120.21971,42.6,NaN,,21.6,,0 / 0,5808,2021-01-13 15:21:35:610
-0.84546,0.27508,10.55799,-0.3162,1.25069,9.72143,0.67498,-0.29959,0.29779,-32.959,-10.154,-8.822,104.987,-7.327,1.863,5.0,40.6365,22.9999,120.21971,42.6,NaN,,21.6,,0 / 0,5908,2021-01-13 15:21:35:710
-0.51973,0.95288,6.47917,-0.34171,1.69868,9.65236,0.82226,0.3769,0.20264,-33.891,-11.175,-8.212,105.741,-9.975,2.028,5.0,40.6365,22.9999,120.21971,42.6,NaN,,21.6,,0 / 0,6009,2021-01-13 15:21:35:811
-0.68739,2.74919,4.60382,-0.62103,2.71929,9.40161,0.8984,0.20096,0.20364,-33.271,-11.227,-8.403,104.99,-16.099,3.779,5.0,39.5815,22.9999,120.21971,42.6,NaN,,21.6,,0 / 0,6108,2021-01-13 15:21:35:910
-0.79996,2.55998,7.81802,-0.85873,2.70308,9.38756,-0.58596,-0.02378,-0.31778,-32.812,-10.546,-9.122,104.852,-16.0,5.227,5.0,39.5815,22.9999,120.21971,42.6,NaN,,21.6,,0 / 0,6208,2021-01-13 15:21:36:010
-2.043,2.09055,11.97827,-0.951,1.81265,9.59064,-1.1621,0.01639,-0.4504,-32.661,-11.49,-8.905,106.135,-10.652,5.663,5.0,39.5815,22.9999,120.21971,42.6,NaN,,21.6,,0 / 0,6308,2021-01-13 15:21:36:110
-1.14006,-0.21592,16.20559,-0.79357,0.9847,9.72476,-0.67522,-0.1217,-0.08233,-34.815,-11.349,-9.566,105.99,-5.763,4.665,5.0,39.5815,22.9999,120.21971,42.6,NaN,,21.6,,0 / 0,6410,2021-01-13 15:21:36:212
-0.81912,-0.89851,12.99139,-0.85985,0.60905,9.74988,0.11283,0.20407,-0.00643,-34.532,-10.725,-10.213,106.446,-3.561,5.04,5.0,39.5847,22.9999,120.21971,42.6,NaN,,21.6,,0 / 0,6510,2021-01-13 15:21:36:312
0.04311,1.42711,8.0695,-0.87496,1.83374,9.59386,1.04137,-0.02657,-0.12265,-34.978,-14.366,-8.651,109.556,-10.777,5.211,5.0,39.5847,22.9999,120.21971,42.6,NaN,,21.6,,0 / 0,6608,2021-01-13 15:21:36:410
-0.51015,2.43544,5.17145,-0.95276,2.82121,9.34363,0.89564,0.03675,-0.43992,-33.526,-16.635,-8.854,112.934,-16.719,5.822,5.0,39.5847,22.9999,120.21971,42.6,NaN,,21.6,,0 / 0,6708,2021-01-13 15:21:36:510
-1.56399,3.21623,6.12948,-1.06552,3.08589,9.24729,-0.5001,0.21118,-0.3789,-33.145,-19.019,-7.514,116.392,-18.341,6.573,5.0,40.7753,22.9999,120.21971,42.6,NaN,,21.6,,0 / 0,6808,2021-01-13 15:21:36:610
-0.61554,3.05097,7.92819,-1.41373,2.38697,9.40607,-0.91422,0.10986,0.02339,-34.125,-18.623,-9.594,116.168,-14.087,8.548,5.0,40.7753,22.9999,120.21971,42.6,NaN,,21.6,,0 / 0,6908,2021-01-13 15:21:36:710
-0.99156,1.59955,12.46447,-0.92945,1.48237,9.64931,-0.95971,-0.39203,0.25582,-35.164,-16.337,-9.81,112.488,-8.694,5.502,5.0,40.7753,22.9999,120.21971,42.6,NaN,,21.6,,0 / 0,7008,2021-01-13 15:21:36:810
-0.45267,-0.94402,16.77083,-0.74586,0.88272,9.73832,-1.12577,-0.28126,0.28559,-35.164,-16.337,-9.81,112.488,-8.694,5.502,5.0,40.4455,22.9999,120.21971,42.6,NaN,,21.6,,0 / 0,7108,2021-01-13 15:21:36:910
-1.37717,0.56488,10.93402,-0.47173,0.34463,9.78923,1.24726,0.11708,0.18582,-36.534,-17.125,-9.119,114.114,-2.014,2.759,5.0,40.4455,22.9999,120.21971,42.6,NaN,,21.6,,0 / 0,7208,2021-01-13 15:21:37:010
-0.79996,0.78283,6.45761,-0.55963,1.73967,9.63487,1.11046,0.02022,0.07497,-38.265,-16.193,-7.862,110.974,-10.218,3.324,5.0,40.4455,22.9999,120.21971,42.6,NaN,,21.6,,0 / 0,7308,2021-01-13 15:21:37:110
-0.77361,1.45824,5.26726,-0.57626,2.33257,9.50776,0.35676,0.09185,0.1687,-37.311,-16.642,-4.479,113.411,-13.76,3.468,5.0,40.4455,22.9999,120.21971,42.6,NaN,,21.6,,0 / 0,7408,2021-01-13 15:21:37:210
-0.42872,2.44502,5.39899,-0.70877,2.61055,9.42619,-0.10073,0.23287,0.23056,-38.568,-17.391,-6.673,111.224,-15.438,4.3,5.0,40.2123,22.9999,120.21971,42.6,NaN,,21.6,,0 / 0,7508,2021-01-13 15:21:37:310
-0.87899,1.67141,9.47541,-0.68722,2.44358,9.47244,-0.60229,-0.14027,0.00549,-39.328,-17.048,-5.657,111.73,-14.429,4.15,5.0,40.2123,22.9999,120.21971,42.6,NaN,,21.6,,0 / 0,7608,2021-01-13 15:21:37:410
-1.88014,0.81397,14.77572,-0.60895,1.39367,9.688,-0.76445,0.10923,-0.1664,-38.911,-19.318,-5.456,115.179,-8.17,3.597,5.0,40.2123,22.9999,120.21971,42.6,NaN,,21.6,,0 / 0,7708,2021-01-13 15:21:37:510
-1.00593,-0.99911,15.78884,-0.80813,0.47827,9.76159,-0.18802,-0.3552,-0.28608,-40.505,-17.545,-9.233,112.706,-5.286,4.695,5.0,40.0562,22.9999,120.21971,42.6,NaN,,21.6,,0 / 0,7808,2021-01-13 15:21:37:610
-0.25867,-0.39555,10.82863,-0.7084,0.83449,9.74537,0.81164,0.13846,-0.13108,-42.01,-19.972,-7.854,114.671,-4.881,4.158,5.0,40.0562,22.9999,120.21971,42.6,NaN,,21.6,,0 / 0,7908,2021-01-13 15:21:37:710
-0.08143,2.00911,5.16666,-0.59461,1.47827,9.67634,1.19636,-0.08376,-0.12479,-42.068,-20.766,-4.049,115.979,-8.67,3.516,5.0,40.0562,22.9999,120.21971,42.6,NaN,,21.6,,0 / 0,8008,2021-01-13 15:21:37:810
-0.6826,3.22102,4.5176,-0.58765,2.70061,9.40913,0.68759,0.13817,-0.05073,-42.068,-20.766,-4.049,115.979,-8.67,3.516,5.0,40.6583,22.9999,120.21971,42.6,NaN,,21.6,,0 / 0,8108,2021-01-13 15:21:37:910
-0.37124,1.76242,8.31859,-0.75419,2.29759,9.50382,-1.051,-0.12345,0.08551,-43.779,-22.802,-1.054,117.377,-16.149,4.414,5.0,40.6583,22.9999,120.21971,42.6,NaN,,21.6,,0 / 0,8208,2021-01-13 15:21:38:010
-0.47902,2.19832,12.48842,-0.67396,1.68191,9.63781,-0.91064,0.03382,0.3467,-45.439,-22.297,-4.133,115.231,-13.55,4.537,5.0,40.6583,22.9999,120.21971,42.6,NaN,,21.6,,0 / 0,8308,2021-01-13 15:21:38:110
-0.32813,0.48105,17.49893,-0.58993,0.83616,9.75311,-0.83908,-0.23361,0.15845,-50.324,-18.307,-6.868,109.27,-4.891,3.461,5.0,41.3524,22.9999,120.21971,42.6,NaN,,21.6,,0 / 0,8408,2021-01-13 15:21:38:210
-1.42747,0.32298,8.76407,-0.35335,0.99323,9.74982,1.05901,-0.11023,0.25489,-51.859,-18.704,-5.746,109.507,-5.813,2.076,5.0,41.3524,22.9999,120.21971,42.6,NaN,,21.6,,0 / 0,8514,2021-01-13 15:21:38:316
0.20119,0.2128,8.65629,-0.05636,1.79556,9.64071,0.4072,-0.01613,-0.0121,-55.747,-17.991,-1.316,107.42,-10.55,0.335,5.0,41.3524,22.9999,120.21971,42.6,NaN,,21.6,,0 / 0,8608,2021-01-13 15:21:38:410
-0.87899,1.85583,5.33432,-0.14232,2.25206,9.5435,0.47696,0.28284,-0.115,-55.747,-17.991,-1.316,107.42,-10.55,0.335,5.0,41.3524,22.9999,120.21971,42.6,NaN,,21.6,,0 / 0,8708,2021-01-13 15:21:38:510
-0.60835,2.46418,4.79303,-0.52461,2.54778,9.45537,0.10831,-0.14102,-0.02779,-60.804,-16.323,-1.775,104.526,-15.058,3.176,5.0,42.9148,22.9999,120.21971,42.6,NaN,,21.6,,0 / 0,8809,2021-01-13 15:21:38:611
-1.27897,2.29652,10.47895,-0.32415,2.54191,9.46594,-0.88703,-0.34902,-0.09223,-61.801,-13.149,-0.748,101.707,-15.023,1.961,5.0,42.9148,22.9999,120.21971,42.6,NaN,,21.6,,0 / 0,8909,2021-01-13 15:21:38:711
-0.05988,1.04869,14.71824,-0.24134,1.17668,9.73281,-0.99157,-0.13494,-0.16355,-64.916,-9.188,-4.701,97.463,-6.891,1.42,5.0,42.9148,22.9999,120.21971,42.6,NaN,,21.6,,0 / 0,9008,2021-01-13 15:21:38:810
0.67062,-1.6362,16.78999,-0.01639,0.34914,9.80042,-0.47859,-0.29308,-0.22742,-64.836,-7.736,-3.448,96.922,-2.04,0.096,5.0,41.3688,22.9999,120.21971,42.6,NaN,,21.6,,0 / 0,9107,2021-01-13 15:21:38:909
0.90055,0.55051,7.66473,0.16508,0.62768,9.78515,1.28318,0.20524,-0.09818,-63.264,-4.776,-1.513,94.354,-3.67,-0.966,5.0,41.3688,22.9999,120.21971,42.6,NaN,,21.6,,0 / 0,9208,2021-01-13 15:21:39:010
0.13173,1.2858,7.37972,-0.06161,1.81926,9.63623,0.59511,0.22988,-0.29323,-63.721,-4.8,-4.538,93.63,-10.691,0.366,5.0,41.3688,22.9999,120.21971,42.6,NaN,,21.6,,0 / 0,9308,2021-01-13 15:21:39:110
-0.30178,2.84021,4.14396,-0.40022,2.44619,9.48822,0.55672,0.28632,-0.41721,-63.937,-5.363,-4.905,93.746,-12.217,1.559,5.0,41.7386,22.9999,120.21971,42.6,NaN,,21.6,,0 / 0,9408,2021-01-13 15:21:39:210
-0.52452,2.1145,8.1677,-0.37734,2.46881,9.4833,-0.63427,-0.09871,-0.24543,-61.652,-2.464,-4.961,91.197,-14.581,2.279,5.0,41.7386,22.9999,120.21971,42.6,NaN,,21.6,,0 / 0,9508,2021-01-13 15:21:39:310
0.08622,2.05702,10.83821,-0.2829,1.46325,9.69274,-0.60675,0.04064,0.29796,-60.853,1.784,-5.41,87.697,-8.581,1.672,5.0,41.7386,22.9999,120.21971,42.6,NaN,,21.6,,0 / 0,9608,2021-01-13 15:21:39:410
0.77601,1.35765,14.19851,-0.27069,0.73281,9.77549,-0.74424,-0.00274,0.34687,-59.218,6.701,-8.186,82.822,-4.285,1.586,5.0,41.5243,22.9999,120.21971,42.6,NaN,,21.6,,0 / 0,9708,2021-01-13 15:21:39:510
-0.86462,-0.26861,11.07533,-0.05696,0.34434,9.80044,0.97359,-0.11342,0.60774,-56.253,10.785,-7.388,78.671,-2.012,0.333,5.0,41.5243,22.9999,120.21971,42.6,NaN,,21.6,,0 / 0,9808,2021-01-13 15:21:39:610
-0.06706,1.10617,9.11615,0.16049,1.55059,9.68196,1.26769,-0.16128,0.59664,-55.004,13.185,-8.468,75.444,-9.098,-0.95,5.0,41.5243,22.9999,120.21971,42.6,NaN,,21.6,,0 / 0,9908,2021-01-13 15:21:39:710
0.06706,1.35286,5.64568,-0.03745,2.10717,9.57752,0.76259,0.26228,0.085,-50.432,14.237,-10.941,72.275,-12.408,0.224,5.0,41.9547,22.9999,120.21971,42.6,NaN,,21.6,,0 / 0,10009,2021-01-13 15:21:39:811
-0.59159,2.20072,4.69244,-0.12675,2.60094,9.4546,0.65089,-0.03478,-0.07958,-47.921,12.583,-12.237,72.109,-15.38,0.768,5.0,41.9547,22.9999,120.21971,42.6,NaN,,21.6,,0 / 0,10108,2021-01-13 15:21:39:910
-0.05509,2.35161,9.10657,-0.31751,2.5761,9.45692,-0.81256,-0.05551,-0.08733,-47.318,11.724,-12.674,72.909,-15.23,1.923,5.0,41.9547,22.9999,120.21971,42.6,NaN,,21.6,,0 / 0,10208,2021-01-13 15:21:40:010
-0.15568,2.22467,11.10646,-0.12807,1.62924,9.66952,-0.84958,-0.26439,-0.20956,-46.45,12.6,-13.765,71.957,-9.563,0.759,5.0,41.9547,22.9999,120.21971,42.6,NaN,,21.6,,0 / 0,10308,2021-01-13 15:21:40:110
0.52452,0.69421,14.05959,-0.14141,1.07743,9.74626,-0.44995,0.32078,0.00919,-45.628,12.826,-14.967,72.585,-6.308,0.831,5.0,40.8703,22.9999,120.21971,42.6,NaN,,21.6,,0 / 0,10408,2021-01-13 15:21:40:210
0.01437,0.12658,12.09084,-0.22016,0.76035,9.77465,0.29811,-0.29058,-0.28309,-44.246,12.078,-14.079,73.68,-4.447,1.29,5.0,40.8703,22.9999,120.21971,42.6,NaN,,21.6,,0 / 0,10508,2021-01-13 15:21:40:310
0.58919,0.72056,9.30297,-0.22312,1.83321,9.6312,0.8369,-0.09762,-0.44542,-42.962,7.896,-14.085,76.637,-10.774,1.327,5.0,40.8703,22.9999,120.21971,42.6,NaN,,21.6,,0 / 0,10608,2021-01-13 15:21:40:410
-0.96282,1.75284,5.22654,-0.25672,2.18183,9.55741,0.67511,0.11127,-0.677,-43.863,5.05,-16.155,79.576,-12.855,1.539,5.0,40.1555,22.9999,120.21971,42.6,NaN,,21.6,,0 / 0,10708,2021-01-13 15:21:40:510
-1.29334,3.19947,4.79303,-0.70273,2.88757,9.34551,-0.15682,0.29805,-0.24836,-40.463,1.74,-16.884,81.68,-17.125,4.3,5.0,40.1555,22.9999,120.21971,42.6,NaN,,21.6,,0 / 0,10808,2021-01-13 15:21:40:610
-0.45267,2.75159,9.41074,-0.91462,2.35765,9.47498,-0.78361,-0.01119,0.11055,-39.858,0.264,-17.427,85.662,-13.911,5.514,5.0,40.1555,22.9999,120.21971,42.6,NaN,,21.6,,0 / 0,10908,2021-01-13 15:21:40:710
-0.49099,2.26778,12.57943,-0.71433,1.78159,9.61697,-0.77319,-0.2285,0.38669,-40.656,5.144,-17.261,79.982,-10.467,4.248,5.0,41.115,22.9999,120.21971,42.6,NaN,,21.6,,0 / 0,11008,2021-01-13 15:21:40:810
0.05748,-0.69254,17.89891,-0.32042,0.94187,9.75605,-0.88353,-0.509,0.17122,-41.122,6.199,-18.508,79.558,-5.511,1.881,5.0,41.115,22.9999,120.21971,42.6,NaN,,21.6,,0 / 0,11108,2021-01-13 15:21:40:910
-1.08976,0.34693,11.43459,0.02357,0.68362,9.78277,1.04196,-0.17203,0.34382,-39.375,9.133,-17.044,75.37,-3.997,-0.138,5.0,41.115,22.9999,120.21971,42.6,NaN,,21.6,,0 / 0,11208,2021-01-13 15:21:41:010
0.22035,0.4068,8.26111,0.12304,1.26547,9.72388,0.93829,-0.01615,0.40266,-39.298,8.243,-17.461,75.278,-7.414,-0.725,5.0,41.115,22.9999,120.21971,42.6,NaN,,21.6,,0 / 0,11308,2021-01-13 15:21:41:110
-0.69457,1.93247,4.63735,0.14137,2.41907,9.50255,1.26553,0.26431,0.18535,-38.526,5.252,-18.417,76.318,-14.281,-0.852,5.0,41.7438,22.9999,120.21971,42.6,NaN,,21.6,,0 / 0,11407,2021-01-13 15:21:41:209
0.56524,2.82344,5.17624,-0.11768,3.52981,9.14861,0.61805,0.27022,0.23782,-37.677,2.301,-17.977,77.939,-21.097,0.737,5.0,41.7438,22.9999,120.21971,42.6,NaN,,21.6,,0 / 0,11508,2021-01-13 15:21:41:310
-0.56284,2.5025,9.97598,-0.20838,2.94099,9.35294,-1.05033,0.04793,-0.34296,-35.504,5.33,-21.334,73.462,-17.451,1.276,5.0,41.7438,22.9999,120.21971,42.6,NaN,,21.6,,0 / 0,11608,2021-01-13 15:21:41:410
0.22514,1.44866,15.10864,-0.24254,1.81483,9.63421,-0.88253,-0.34836,-0.29318,-36.369,5.298,-20.978,76.702,-10.665,1.442,5.0,41.1919,22.9999,120.21971,42.6,NaN,,21.6,,0 / 0,11708,2021-01-13 15:21:41:510
0.57961,-0.97995,17.54683,0.10923,0.52925,9.79175,-0.19088,-0.06169,-0.16421,-36.381,6.71,-20.825,77.17,-3.094,-0.639,5.0,41.1919,22.9999,120.21971,42.6,NaN,,21.6,,0 / 0,11808,2021-01-13 15:21:41:610
-0.20837,1.16365,9.47302,0.04659,0.84135,9.77038,1.31455,0.10009,-0.09992,-36.438,3.998,-22.715,80.551,-4.922,-0.273,5.0,41.1919,22.9999,120.21971,42.6,NaN,,21.6,,0 / 0,11908,2021-01-13 15:21:41:710
0.22035,1.76721,6.5103,-0.09187,2.24261,9.54634,1.05242,0.0693,-0.37173,-34.133,-2.602,-22.779,86.215,-13.219,0.551,5.0,41.2396,22.9999,120.21971,42.6,NaN,,21.6,,0 / 0,12008,2021-01-13 15:21:41:810
-0.22514,3.0366,4.33317,-0.34563,3.13873,9.28436,0.55368,0.19857,-0.27197,-32.933,-3.338,-21.215,84.912,-16.707,1.136,5.0,41.2396,22.9999,120.21971,42.6,NaN,,21.6,,0 / 0,12108,2021-01-13 15:21:41:910
-0.50057,2.48334,6.22529,-0.48892,3.13669,9.2786,-0.78367,-0.03042,0.0965,-33.776,-3.995,-24.459,84.641,-18.654,3.016,5.0,41.2396,22.9999,120.21971,42.6,NaN,,21.6,,0 / 0,12208,2021-01-13 15:21:42:010
0.2898,2.91206,12.51956,-0.29956,2.31635,9.52445,-0.77953,-0.36242,0.29533,-32.303,-1.031,-25.835,81.454,-13.662,1.801,5.0,41.1748,22.9999,120.21971,42.6,NaN,,21.6,,0 / 0,12308,2021-01-13 15:21:42:110
0.35687,1.44866,15.24516,-0.03771,1.47799,9.69456,-0.86183,-0.06471,0.23467,-35.758,-1.756,-24.018,85.792,-11.256,0.486,5.0,41.1748,22.9999,120.21971,42.6,NaN,,21.6,,0 / 0,12408,2021-01-13 15:21:42:210
-0.10059,0.90019,12.88361,0.07689,1.0555,9.74938,0.0706,-0.21761,0.2504,-33.493,1.024,-24.385,83.729,-6.179,-0.452,5.0,41.1748,22.9999,120.21971,42.6,NaN,,21.6,,0 / 0,12507,2021-01-13 15:21:42:309
-0.20358,0.98402,8.89101,0.25232,1.97203,9.60301,0.90015,-0.03842,0.01973,-34.222,-2.715,-24.745,86.11,-11.601,-1.505,5.0,41.1748,22.9999,120.21971,42.6,NaN,,21.6,,0 / 0,12608,2021-01-13 15:21:42:410
-0.10059,1.74565,5.4421,0.17144,2.93339,9.35608,0.88242,0.15378,0.00467,-32.652,-3.698,-24.906,83.268,-17.405,-1.05,5.0,40.9354,22.9999,120.21971,42.6,NaN,,21.6,,0 / 0,12708,2021-01-13 15:21:42:510
-0.54608,3.11325,4.74752,0.03639,3.28037,9.24166,-0.12657,0.33737,0.00295,-33.002,-7.175,-27.062,85.691,-19.542,-0.226,5.0,40.9354,22.9999,120.21971,42.6,NaN,,21.6,,0 / 0,12808,2021-01-13 15:21:42:610
-0.12454,2.78033,8.34254,-0.228,3.08631,9.30554,-0.6006,-0.15179,-0.1288,-33.635,-8.213,-26.547,88.943,-18.344,1.404,5.0,40.9354,22.9999,120.21971,42.6,NaN,,21.6,,0 / 0,12909,2021-01-13 15:21:42:711
-0.30657,2.34921,12.47645,0.03154,2.0607,9.58764,-1.23726,-0.19426,-0.23819,-34.393,-4.752,-26.118,88.989,-12.13,-0.188,5.0,41.0626,22.9999,120.21971,42.6,NaN,,21.6,,0 / 0,13008,2021-01-13 15:21:42:810
1.77954,0.47866,16.35648,0.08485,1.34262,9.71394,-1.14214,-0.17632,-0.03409,-34.486,-3.147,-27.341,88.702,-7.869,-0.5,5.0,41.0626,22.9999,120.21971,42.6,NaN,,21.6,,0 / 0,13108,2021-01-13 15:21:42:910
0.95085,0.56488,9.16884,0.31762,0.90184,9.75993,1.42095,-0.09175,-0.22875,-35.297,-4.936,-25.376,94.312,-5.276,-1.864,5.0,41.0626,22.9999,120.21971,42.6,NaN,,21.6,,0 / 0,13208,2021-01-13 15:21:43:010
0.34729,1.16844,8.81676,0.40799,2.2276,9.54158,0.83571,-0.14985,-0.52806,-34.839,-8.85,-24.343,95.015,-13.129,-2.448,5.0,41.5354,22.9999,120.21971,42.6,NaN,,21.6,,0 / 0,13308,2021-01-13 15:21:43:110
-0.52692,2.53603,6.57976,0.17562,2.39147,9.50897,0.64624,0.37961,-0.42138,-32.973,-10.452,-24.329,96.481,-14.115,-1.058,5.0,41.5354,22.9999,120.21971,42.6,NaN,,21.6,,0 / 0,13408,2021-01-13 15:21:43:210
-0.88618,3.14917,4.91278,-0.32318,3.06244,9.31061,0.44102,0.27304,-0.20171,-31.181,-14.287,-22.885,101.486,-18.197,1.988,5.0,41.5354,22.9999,120.21971,42.6,NaN,,21.6,,0 / 0,13508,2021-01-13 15:21:43:310
-0.17245,2.51208,6.99411,-0.69063,2.83289,9.36313,-0.71806,0.12386,0.29571,-30.362,-13.957,-25.768,101.628,-16.791,4.219,5.0,40.4974,22.9999,120.21971,42.6,NaN,,21.6,,0 / 0,13608,2021-01-13 15:21:43:410
-0.17005,2.42346,10.80947,-0.59405,2.42562,9.48335,-0.89526,-0.2805,0.36387,-30.718,-11.379,-27.544,101.628,-16.791,4.219,5.0,40.4974,22.9999,120.21971,42.6,NaN,,21.6,,0 / 0,13708,2021-01-13 15:21:43:510
-0.28501,-0.53925,18.04261,-0.51338,1.25005,9.7131,-1.03592,-0.20093,0.25233,-33.06,-5.324,-28.634,92.474,-7.323,3.026,5.0,40.4974,22.9999,120.21971,42.6,NaN,,21.6,,0 / 0,13808,2021-01-13 15:21:43:610
-0.69457,0.50979,11.62619,-0.09083,0.86691,9.76783,0.43611,-0.40261,0.34827,-31.775,-4.165,-25.904,93.04,-5.072,0.533,5.0,41.3974,22.9999,120.21971,42.6,NaN,,21.6,,0 / 0,13908,2021-01-13 15:21:43:710
-0.37124,0.65829,8.35212,0.01609,1.50029,9.69119,0.82674,-0.1067,-0.05066,-34.366,-7.512,-23.628,97.093,-8.8,-0.095,5.0,41.3974,22.9999,120.21971,42.6,NaN,,21.6,,0 / 0,14009,2021-01-13 15:21:43:811
-0.59159,1.8678,5.13313,0.01297,2.41697,9.50413,0.82077,0.27086,-0.03272,-33.641,-9.227,-24.413,94.705,-14.268,-0.078,5.0,41.3974,22.9999,120.21971,42.6,NaN,,21.6,,0 / 0,14108,2021-01-13 15:21:43:910
-0.30418,3.30725,4.65891,-0.26241,3.11017,9.29669,-0.1201,0.19557,0.02906,-32.166,-10.012,-23.128,94.343,-18.491,1.617,5.0,41.3974,22.9999,120.21971,42.6,NaN,,21.6,,0 / 0,14209,2021-01-13 15:21:44:011
-0.88379,2.42346,9.60954,-0.35068,2.89544,9.3629,-0.90052,-0.15206,-0.21687,-31.34,-8.692,-24.423,93.34,-17.173,2.145,5.0,41.576,22.9999,120.21971,42.6,NaN,,21.6,,0 / 0,14308,2021-01-13 15:21:44:110
-0.52213,2.02588,12.69679,-0.11849,2.03065,9.59337,-1.05414,-0.05211,0.0679,-32.119,-6.367,-23.571,91.743,-11.951,0.708,5.0,41.576,22.9999,120.21971,42.6,NaN,,21.6,,0 / 0,14408,2021-01-13 15:21:44:210
0.68978,1.13251,16.70137,0.08015,0.98957,9.75627,-0.71713,-0.30188,0.06413,-32.148,-4.35,-24.039,92.757,-5.791,-0.471,5.0,41.576,22.9999,120.21971,42.6,NaN,,21.6,,0 / 0,14508,2021-01-13 15:21:44:310
0.40956,0.699,10.05981,0.22581,0.93448,9.75941,1.12035,0.10055,-0.3459,-32.056,-7.989,-23.474,100.273,-5.468,-1.325,5.0,41.0113,22.9999,120.21971,42.6,NaN,,21.6,,0 / 0,14608,2021-01-13 15:21:44:410
0.41674,1.17563,9.55445,0.03706,1.965,9.60769,0.6062,0.16969,-0.34536,-32.442,-9.651,-23.889,98.842,-11.559,-0.221,5.0,41.0113,22.9999,120.21971,42.6,NaN,,21.6,,0 / 0,14708,2021-01-13 15:21:44:510
0.06706,3.38868,4.80501,-0.18396,2.77397,9.40434,1.0269,-0.03467,-0.26317,-29.727,-12.788,-20.682,102.42,-16.431,1.121,5.0,41.0113,22.9999,120.21971,42.6,NaN,,21.6,,0 / 0,14809,2021-01-13 15:21:44:611
-0.98198,3.33359,4.19905,-0.20682,3.28077,9.23927,0.25541,0.32327,-0.29127,-30.627,-15.079,-21.032,103.139,-19.545,1.282,5.0,40.8706,22.9999,120.21971,42.6,NaN,,21.6,,0 / 0,14908,2021-01-13 15:21:44:710
-0.582,2.62704,9.41074,-0.63445,2.92903,9.33748,-0.90696,-0.31401,0.26012,-29.673,-12.869,-21.319,102.16,-17.378,3.887,5.0,40.8706,22.9999,120.21971,42.6,NaN,,21.6,,0 / 0,15008,2021-01-13 15:21:44:810
0.03832,2.16719,12.95546,-0.22753,1.90459,9.61723,-0.9667,-0.18761,0.56691,-29.673,-12.869,-21.319,102.16,-17.378,3.887,5.0,40.8706,22.9999,120.21971,42.6,NaN,,21.6,,0 / 0,15107,2021-01-13 15:21:44:909
0.194,0.09784,17.72167,-0.03538,1.24649,9.72705,-0.48906,-0.34423,0.18791,-32.169,-5.498,-20.343,94.337,-7.302,0.208,5.0,40.8706,22.9999,120.21971,42.6,NaN,,21.6,,0 / 0,15208,2021-01-13 15:21:45:010
-0.4886,0.95049,10.22747,0.17157,1.07874,9.74563,1.08746,0.22173,0.27762,-30.911,-6.798,-20.682,98.52,-6.315,-1.009,5.0,41.874,22.9999,120.21971,42.6,NaN,,21.6,,0 / 0,15308,2021-01-13 15:21:45:110
-0.36166,0.73733,7.81083,0.16735,2.24647,9.54441,0.60758,0.0649,0.04916,-32.246,-9.071,-18.76,97.699,-13.243,-1.004,5.0,41.874,22.9999,120.21971,42.6,NaN,,21.6,,0 / 0,15408,2021-01-13 15:21:45:210
-0.47183,1.8678,4.80021,0.13788,2.55987,9.46565,0.67844,0.02687,0.04314,-30.93,-9.91,-18.935,98.473,-15.131,-0.835,5.0,41.874,22.9999,120.21971,42.6,NaN,,21.6,,0 / 0,15508,2021-01-13 15:21:45:310
-0.60835,3.32162,5.7319,-0.03091,3.04638,9.32143,-0.17235,0.27672,0.15369,-31.028,-9.188,-20.303,94.37,-18.098,0.19,5.0,41.1794,22.9999,120.21971,42.6,NaN,,21.6,,0 / 0,15608,2021-01-13 15:21:45:410
0.15089,3.26174,7.97849,-0.09437,2.74238,9.41493,-0.50205,-0.14152,-0.0175,-31.028,-9.188,-20.303,94.37,-18.098,0.19,5.0,41.1794,22.9999,120.21971,42.6,NaN,,21.6,,0 / 0,15708,2021-01-13 15:21:45:510
1.27179,1.30017,14.44041,0.00649,2.20936,9.55453,-0.97049,-0.25076,-0.24354,-30.958,-7.158,-17.502,95.09,-13.02,-0.039,5.0,41.1794,22.9999,120.21971,42.6,NaN,,21.6,,0 / 0,15808,2021-01-13 15:21:45:610
1.71248,-0.13927,15.75052,0.41073,0.92371,9.75441,-0.68376,-0.51627,-0.08543,-30.317,-5.428,-17.404,96.356,-5.405,-2.411,5.0,42.5085,22.9999,120.21971,42.6,NaN,,21.6,,0 / 0,15908,2021-01-13 15:21:45:710
0.72571,0.90498,10.82863,0.46284,1.29604,9.70961,0.428,0.1213,-0.0522,-30.639,-5.302,-16.14,95.012,-7.594,-2.729,5.0,42.5085,22.9999,120.21971,42.6,NaN,,21.6,,0 / 0,16008,2021-01-13 15:21:45:810
0.55566,1.37202,9.11136,0.41847,1.75336,9.63955,0.71797,0.09206,-0.37796,-30.037,-5.583,-16.806,95.149,-10.299,-2.486,5.0,42.5085,22.9999,120.21971,42.6,NaN,,21.6,,0 / 0,16108,2021-01-13 15:21:45:910
-0.52692,3.21384,4.6134,0.08157,2.79473,9.39964,1.05626,0.28897,-0.37837,-29.305,-10.053,-15.981,99.74,-16.558,-0.497,5.0,41.0924,22.9999,120.21971,42.6,NaN,,21.6,,0 / 0,16208,2021-01-13 15:21:46:010
0.03832,3.26653,4.60621,-0.28667,3.24662,9.2492,-0.00199,0.2923,0.039,-30.511,-11.691,-14.659,101.987,-19.333,1.775,5.0,41.0924,22.9999,120.21971,42.6,NaN,,21.6,,0 / 0,16307,2021-01-13 15:21:46:109
0.60356,2.72764,10.3089,-0.31039,2.95448,9.34586,-0.56376,0.03378,0.1749,-29.701,-7.762,-15.905,95.821,-17.534,1.902,5.0,41.0924,22.9999,120.21971,42.6,NaN,,21.6,,0 / 0,16408,2021-01-13 15:21:46:210
0.88857,2.16958,14.62244,0.00512,2.16916,9.56374,-0.86984,0.13536,0.52901,-29.701,-7.762,-15.905,95.821,-17.534,1.902,5.0,41.0924,22.9999,120.21971,42.6,NaN,,21.6,,0 / 0,16508,2021-01-13 15:21:46:310
0.00479,1.5277,14.02846,0.15193,1.28053,9.7215,-0.95972,-0.10709,0.23856,-28.891,-2.884,-16.042,91.646,-7.503,-0.895,5.0,40.9007,22.9999,120.21971,42.6,NaN,,21.6,,0 / 0,16608,2021-01-13 15:21:46:410
0.16526,1.09659,11.51362,0.18293,1.72262,9.65244,0.81463,-0.25097,0.08254,-27.917,-5.461,-15.351,94.528,-10.117,-1.086,5.0,40.9007,22.9999,120.21971,42.6,NaN,,21.6,,0 / 0,16708,2021-01-13 15:21:46:510
-0.19879,0.92175,9.39398,0.31453,2.2567,9.53828,0.33815,-0.02488,-0.08496,-27.003,-3.929,-15.937,90.017,-13.304,-1.889,5.0,40.9007,22.9999,120.21971,42.6,NaN,,21.6,,0 / 0,16808,2021-01-13 15:21:46:610
-0.27543,3.1348,3.34401,-0.11977,3.31256,9.22946,1.13955,0.32529,0.15617,-28.555,-7.627,-14.011,95.731,-19.742,0.743,5.0,41.5051,22.9999,120.21971,42.6,NaN,,21.6,,0 / 0,16908,2021-01-13 15:21:46:710
-0.47423,3.64016,4.5176,-0.17047,3.6116,9.11579,0.2936,0.15496,0.13764,-26.955,-7.421,-14.898,92.458,-21.61,1.071,5.0,41.5051,22.9999,120.21971,42.6,NaN,,21.6,,0 / 0,17008,2021-01-13 15:21:46:810
-0.63949,2.6965,9.50176,-0.01262,3.13749,9.2912,-0.78385,-0.46601,-0.35513,-26.955,-7.421,-14.898,92.458,-21.61,1.071,5.0,41.5051,22.9999,120.21971,42.6,NaN,,21.6,,0 / 0,17108,2021-01-13 15:21:46:910
0.2443,1.88696,14.80207,0.0568,1.80269,9.63937,-1.31726,-0.06247,-0.18915,-27.561,-5.65,-14.035,96.729,-10.593,-0.338,5.0,40.3722,22.9999,120.21971,42.6,NaN,,21.6,,0 / 0,17208,2021-01-13 15:21:47:010
1.32687,0.96725,13.4249,0.4033,1.48659,9.68493,-0.34129,-0.20991,-0.06169,-28.981,-5.454,-13.158,95.605,-8.719,-2.385,5.0,40.3722,22.9999,120.21971,42.6,NaN,,21.6,,0 / 0,17308,2021-01-13 15:21:47:110
1.25263,1.06545,10.88132,0.43562,1.79716,9.63072,0.72054,0.01139,-0.1689,-26.552,-8.209,-11.728,101.639,-10.56,-2.59,5.0,40.3722,22.9999,120.21971,42.6,NaN,,21.6,,0 / 0,17408,2021-01-13 15:21:47:210
-0.15808,2.51927,4.66609,0.00989,2.72793,9.41959,1.01238,0.49217,-0.43113,-25.766,-9.067,-12.177,101.525,-16.151,-0.06,5.0,41.5467,22.9999,120.21971,42.6,NaN,,21.6,,0 / 0,17508,2021-01-13 15:21:47:310
-0.52692,4.04014,3.62184,-0.15247,3.34098,9.21873,0.98843,0.16833,-0.3273,-25.669,-10.458,-12.513,101.053,-19.919,0.948,5.0,41.5467,22.9999,120.21971,42.6,NaN,,21.6,,0 / 0,17608,2021-01-13 15:21:47:410
-0.75445,3.29288,8.4575,-0.52023,3.45585,9.1628,-0.59172,-0.07144,-0.20027,-28.103,-11.0,-11.658,103.039,-20.634,3.25,5.0,41.5467,22.9999,120.21971,42.6,NaN,,21.6,,0 / 0,17708,2021-01-13 15:21:47:510
0.17484,2.74919,10.73283,-0.25302,2.56261,9.46253,-0.8899,-0.21683,0.21778,-26.278,-9.779,-11.262,104.833,-15.148,1.532,5.0,41.5467,22.9999,120.21971,42.6,NaN,,21.6,,0 / 0,17810,2021-01-13 15:21:47:612
0.28741,0.89301,15.33378,-0.13966,2.21153,9.55301,-0.75536,-0.05056,0.41478,-26.934,-9.077,-11.775,102.756,-13.033,0.838,5.0,42.2831,22.9999,120.21971,42.6,NaN,,21.6,,0 / 0,17908,2021-01-13 15:21:47:710
-0.73769,1.39597,11.78906,0.1467,1.59684,9.67466,-0.37371,-0.28332,0.24278,-27.721,-7.997,-12.351,101.917,-9.371,-0.869,5.0,42.2831,22.9999,120.21971,42.6,NaN,,21.6,,0 / 0,18008,2021-01-13 15:21:47:810
0.10059,1.44148,8.97005,0.30864,2.41827,9.49879,0.51538,0.0019,0.24915,-27.316,-8.592,-11.006,102.277,-14.276,-1.861,5.0,42.2831,22.9999,120.21971,42.6,NaN,,21.6,,0 / 0,18108,2021-01-13 15:21:47:910
-0.32813,2.12887,5.91632,0.18984,2.64087,9.44247,0.47223,0.24044,0.09736,-30.247,-8.716,-10.31,101.04,-15.622,-1.152,5.0,41.8091,22.9999,120.21971,42.6,NaN,,21.6,,0 / 0,18208,2021-01-13 15:21:48:010
-0.13892,3.70483,4.52239,-0.02553,3.39973,9.19846,0.51317,0.19515,0.14977,-28.654,-9.22,-10.465,99.779,-20.284,0.159,5.0,41.8091,22.9999,120.21971,42.6,NaN,,21.6,,0 / 0,18310,2021-01-13 15:21:48:112
0.3425,3.11564,8.67066,0.15312,3.2887,9.2375,-0.20882,-0.24197,0.02758,-27.773,-8.881,-8.935,100.787,-19.594,-0.95,5.0,41.8091,22.9999,120.21971,42.6,NaN,,21.6,,0 / 0,18408,2021-01-13 15:21:48:210
-0.74008,2.34682,11.71481,0.26575,2.94886,9.34901,-0.85801,-0.18767,-0.2706,-28.237,-10.202,-7.458,104.513,-17.5,-1.628,5.0,42.0526,22.9999,120.21971,42.6,NaN,,21.6,,0 / 0,18508,2021-01-13 15:21:48:310
1.16161,1.91331,14.32784,0.4811,2.1464,9.55677,-0.57392,-0.31411,-0.09559,-28.46,-8.515,-7.487,104.115,-12.643,-2.882,5.0,42.0526,22.9999,120.21971,42.6,NaN,,21.6,,0 / 0,18608,2021-01-13 15:21:48:410
1.46339,1.55644,12.04773,0.63346,1.67345,9.64203,0.05226,0.05901,-0.12225,-28.388,-8.521,-8.353,104.701,-9.825,-3.759,5.0,42.0526,22.9999,120.21971,42.6,NaN,,21.6,,0 / 0,18708,2021-01-13 15:21:48:510
0.41914,1.81511,7.74616,0.5671,2.25086,9.52798,1.07983,0.05191,-0.30456,-28.209,-10.459,-6.012,106.123,-13.269,-3.406,5.0,42.3238,22.9999,120.21971,42.6,NaN,,21.6,,0 / 0,18808,2021-01-13 15:21:48:610
-0.23472,3.16115,5.10678,0.21105,3.39134,9.19916,0.70017,0.30898,-0.21368,-27.072,-11.381,-4.555,107.313,-20.232,-1.314,5.0,42.3238,22.9999,120.21971,42.6,NaN,,21.6,,0 / 0,18908,2021-01-13 15:21:48:710
-0.17484,3.61621,4.34754,-0.17881,3.64699,9.10153,0.16201,0.32733,-0.01635,-26.817,-12.115,-5.498,109.28,-21.832,1.126,5.0,42.3238,22.9999,120.21971,42.6,NaN,,21.6,,0 / 0,19008,2021-01-13 15:21:48:810
0.56524,3.36712,8.04315,-0.27702,3.42655,9.18436,-0.66821,-0.17981,0.25991,-27.77,-11.823,-5.031,109.188,-20.451,1.728,5.0,42.3238,22.9999,120.21971,42.6,NaN,,21.6,,0 / 0,19108,2021-01-13 15:21:48:910
0.5341,3.96589,13.09917,-0.10397,2.55411,9.46763,-0.87721,0.14861,0.48922,-28.732,-10.385,-5.535,105.71,-15.097,0.629,5.0,41.6494,22.9999,120.21971,42.6,NaN,,21.6,,0 / 0,19208,2021-01-13 15:21:49:010
1.72446,1.28101,18.20069,0.09909,1.28875,9.7211,-0.99341,-0.28172,0.20125,-30.98,-8.745,-6.295,104.658,-7.551,-0.584,5.0,41.6494,22.9999,120.21971,42.6,NaN,,21.6,,0 / 0,19308,2021-01-13 15:21:49:110
-0.93169,1.07982,8.87664,0.20547,1.36616,9.70885,0.67853,-0.11363,0.02144,-28.712,-8.658,-3.557,105.964,-8.008,-1.212,5.0,41.6494,22.9999,120.21971,42.6,NaN,,21.6,,0 / 0,19408,2021-01-13 15:21:49:210
-0.36884,1.26903,7.7294,0.18661,2.71728,9.42082,0.84265,0.10553,-0.04899,-28.492,-8.493,-3.192,103.491,-16.086,-1.135,5.0,44.2286,22.9999,120.21971,42.6,NaN,,21.6,,0 / 0,19508,2021-01-13 15:21:49:310
-1.01551,2.47136,4.93913,-0.01522,3.48223,9.16756,0.74595,0.04014,-0.16608,-28.859,-11.702,-3.992,108.694,-20.799,0.095,5.0,44.2286,22.9999,120.21971,42.6,NaN,,21.6,,0 / 0,19609,2021-01-13 15:21:49:411
-0.2419,2.86416,6.04566,-0.22827,3.47696,9.16673,-0.26073,0.03154,0.02133,-28.789,-10.582,-4.867,106.762,-20.766,1.426,5.0,44.2286,22.9999,120.21971,42.6,NaN,,21.6,,0 / 0,19708,2021-01-13 15:21:49:510
-0.582,2.96236,9.7245,-0.05099,2.95574,9.35048,-0.6255,-0.30337,-0.12051,-28.096,-11.381,-2.589,108.97,-17.542,0.312,5.0,42.1231,22.9999,120.21971,42.6,NaN,,21.6,,0 / 0,19808,2021-01-13 15:21:49:610
-0.75445,3.7192,11.92797,0.20701,2.21605,9.55074,-0.75175,-0.1084,-0.19235,-29.008,-12.044,-2.997,110.594,-13.06,-1.242,5.0,42.1231,22.9999,120.21971,42.6,NaN,,21.6,,0 / 0,19908,2021-01-13 15:21:49:710
1.81068,0.64631,15.8583,0.1727,1.69722,9.65712,-0.96632,0.02118,0.05899,-30.409,-10.125,-4.63,106.557,-9.966,-1.024,5.0,42.1231,22.9999,120.21971,42.6,NaN,,21.6,,0 / 0,20008,2021-01-13 15:21:49:810
1.23347,-0.26621,13.25245,0.59951,1.19196,9.71546,0.56802,-0.44911,-0.15837,-31.225,-11.533,-5.248,109.872,-6.981,-3.531,5.0,42.5482,22.9999,120.21971,42.6,NaN,,21.6,,0 / 0,20108,2021-01-13 15:21:49:910
0.62751,2.04983,6.53186,0.48345,2.57355,9.45058,1.38901,0.20315,-0.05298,-30.05,-12.745,-1.931,111.261,-15.214,-2.928,5.0,42.5482,22.9999,120.21971,42.6,NaN,,21.6,,0 / 0,20208,2021-01-13 15:21:50:010
-0.6802,3.20905,4.81219,0.20425,3.10705,9.29919,0.74303,0.37674,-0.51669,-29.903,-12.865,-0.322,112.006,-18.471,-1.258,5.0,42.5482,22.9999,120.21971,42.6,NaN,,21.6,,0 / 0,20308,2021-01-13 15:21:50:110
-0.5365,2.95277,5.96662,-0.21994,3.70436,9.07743,0.37968,0.1957,-0.18376,-28.723,-12.764,-2.077,111.684,-22.194,1.388,5.0,42.5482,22.9999,120.21971,42.6,NaN,,21.6,,0 / 0,20408,2021-01-13 15:21:50:210
-0.53889,2.88332,9.76043,-0.18599,2.86817,9.376,-0.92295,-0.03891,0.31053,-30.495,-13.013,-2.201,111.813,-17.006,1.136,5.0,42.7148,22.9999,120.21971,42.6,NaN,,21.6,,0 / 0,20508,2021-01-13 15:21:50:310
0.46704,2.56717,13.87038,-0.24539,2.4951,9.48075,-0.78788,0.22783,0.66873,-31.417,-10.053,-4.166,105.901,-14.74,1.483,5.0,42.7148,22.9999,120.21971,42.6,NaN,,21.6,,0 / 0,20608,2021-01-13 15:21:50:410
1.89211,-1.16916,18.45696,-0.00674,1.2359,9.72846,-0.85551,-0.46956,0.19067,-29.808,-8.444,-5.189,103.69,-7.24,0.04,5.0,42.7148,22.9999,120.21971,42.6,NaN,,21.6,,0 / 0,20708,2021-01-13 15:21:50:510
-0.65865,1.44627,8.74012,0.41256,1.79283,9.63255,0.69976,-0.29401,0.08987,-32.129,-9.259,-2.496,104.478,-10.534,-2.452,5.0,43.3739,22.9999,120.21971,42.6,NaN,,21.6,,0 / 0,20808,2021-01-13 15:21:50:610
0.06227,1.79835,7.66713,0.45864,2.55333,9.4573,0.93774,-0.00848,0.07759,-33.463,-8.639,-1.449,103.684,-15.092,-2.776,5.0,43.3739,22.9999,120.21971,42.6,NaN,,21.6,,0 / 0,20908,2021-01-13 15:21:50:710
-0.194,3.27132,2.59914,0.34279,3.46027,9.16948,0.79914,0.14315,-0.05925,-32.586,-8.048,-1.375,101.494,-20.662,-2.141,5.0,43.3739,22.9999,120.21971,42.6,NaN,,21.6,,0 / 0,21008,2021-01-13 15:21:50:810
0.36645,3.09169,6.23726,-0.06924,3.42717,9.18804,-0.72702,0.22386,-0.17781,-33.583,-8.354,-2.479,101.445,-20.455,0.432,5.0,43.3694,22.9999,120.21971,42.6,NaN,,21.6,,0 / 0,21108,2021-01-13 15:21:50:910
-1.00114,3.29048,10.28255,-0.0131,2.835,9.38792,-0.9442,-0.2303,-0.39563,-32.04,-8.149,-1.143,102.99,-16.803,0.08,5.0,43.3694,22.9999,120.21971,42.6,NaN,,21.6,,0 / 0,21208,2021-01-13 15:21:51:010
-0.22753,2.91685,10.71606,-0.02982,2.22987,9.54972,-0.6714,-0.18872,-0.27258,-33.074,-8.767,-3.428,103.796,-13.143,0.179,5.0,43.3694,22.9999,120.21971,42.6,NaN,,21.6,,0 / 0,21308,2021-01-13 15:21:51:110
1.42028,-1.13802,20.46643,0.38286,0.99177,9.74886,-1.19121,-0.46796,-0.24404,-32.59,-8.576,-2.653,104.537,-5.804,-2.249,5.0,43.1378,22.9999,120.21971,42.6,NaN,,21.6,,0 / 0,21408,2021-01-13 15:21:51:210
1.20233,0.32298,10.55559,0.67085,0.61063,9.7646,1.12494,0.02073,-0.23843,-33.065,-8.56,-1.592,104.89,-3.57,-3.93,5.0,43.1378,22.9999,120.21971,42.6,NaN,,21.6,,0 / 0,21508,2021-01-13 15:21:51:310
0.40716,1.7241,6.97255,0.3197,2.14273,9.56436,1.36087,0.41316,-0.10989,-33.785,-9.794,-2.114,104.978,-12.621,-1.914,5.0,43.1378,22.9999,120.21971,42.6,NaN,,21.6,,0 / 0,21608,2021-01-13 15:21:51:410
-1.09695,2.37077,3.92122,-0.42102,2.92754,9.35001,0.67322,0.59083,-0.26244,-32.023,-9.996,-3.418,105.792,-17.369,2.578,5.0,43.1378,22.9999,120.21971,42.6,NaN,,21.6,,0 / 0,21708,2021-01-13 15:21:51:510
-1.60231,1.74805,4.22061,-0.79323,3.15862,9.2501,0.15904,0.4904,0.23728,-31.339,-9.787,-4.064,106.139,-18.789,4.901,5.0,42.9239,22.9999,120.21971,42.6,NaN,,21.6,,0 / 0,21808,2021-01-13 15:21:51:610
-0.76164,0.62236,12.23933,-0.43039,1.85163,9.62064,-1.90711,0.04124,1.01729,-33.936,-4.927,-4.94,97.092,-10.884,2.561,5.0,42.9239,22.9999,120.21971,42.6,NaN,,21.6,,0 / 0,21908,2021-01-13 15:21:51:710
-0.02395,0.87864,13.60932,-0.45258,0.53139,9.78178,-1.03537,0.19343,1.04857,-34.189,2.456,-7.789,86.093,-3.106,2.649,5.0,42.9239,22.9999,120.21971,42.6,NaN,,21.6,,0 / 0,22008,2021-01-13 15:21:51:810
-0.86462,-1.02785,14.0548,-0.19513,0.46407,9.79372,-0.31701,-0.64184,0.62349,-34.475,4.092,-6.132,82.903,-2.712,1.141,5.0,58.0332,22.9999,120.21971,42.6,NaN,,21.6,,0 / 0,22107,2021-01-13 15:21:51:909
-3.18306,-0.02191,9.07064,0.38031,0.52252,9.78533,0.42301,-0.40397,0.89175,-33.615,8.854,-6.97,74.368,-3.054,-2.226,5.0,58.0332,22.9999,120.21971,42.6,NaN,,21.6,,0 / 0,22208,2021-01-13 15:21:52:010
-4.18421,-0.63266,9.98796,0.60752,1.30485,9.70045,0.70293,-0.09041,1.57789,-32.215,11.268,-7.618,68.741,-7.646,-3.584,5.0,58.0332,22.9999,120.21971,42.6,NaN,,21.6,,0 / 0,22308,2021-01-13 15:21:52:110
-2.68249,-1.01348,9.35805,0.54101,1.52972,9.67149,0.52985,0.37436,2.03176,-26.984,18.572,-12.0,51.552,-8.974,-3.202,5.0,60.1238,22.9999,120.21971,42.6,NaN,,21.6,,0 / 0,22408,2021-01-13 15:21:52:210
-1.2167,-0.38836,8.14854,0.01516,2.11118,9.5767,0.60624,0.9596,2.64743,-22.098,22.47,-14.221,41.887,-12.432,-0.091,5.0,60.1238,22.9999,120.21971,42.6,NaN,,21.6,,0 / 0,22508,2021-01-13 15:21:52:310
0.27543,0.92414,7.29589,-0.52599,2.48822,9.47114,0.32604,1.12241,2.62573,-15.247,26.846,-15.033,28.021,-14.698,3.179,5.0,60.1238,22.9999,120.21971,42.6,NaN,,21.6,,0 / 0,22608,2021-01-13 15:21:52:410
0.78798,1.55884,8.30901,-0.66214,2.34617,9.49881,-0.58811,0.68007,1.89284,-7.964,27.846,-15.406,16.413,-13.842,3.987,5.0,48.9114,22.9999,120.21971,42.6,NaN,,21.6,,0 / 0,22708,2021-01-13 15:21:52:510
1.83224,2.75398,10.2107,-0.78106,1.84725,9.59938,-0.50864,0.35903,1.30264,-4.476,29.589,-13.585,9.086,-10.858,4.652,5.0,48.9114,22.9999,120.21971,42.6,NaN,,21.6,,0 / 0,22808,2021-01-13 15:21:52:610
1.59273,0.19125,15.8104,-0.71916,0.83917,9.74418,-1.17238,-0.02377,0.5437,-3.128,32.305,-11.977,6.72,-4.909,4.221,5.0,48.9114,22.9999,120.21971,42.6,NaN,,21.6,,0 / 0,22908,2021-01-13 15:21:52:710
0.76403,-0.51291,14.2991,-0.50494,0.50699,9.78051,-0.22533,-0.40709,0.32211,-2.905,31.027,-11.3,6.45,-2.963,2.955,5.0,42.9344,22.9999,120.21971,42.6,NaN,,21.6,,0 / 0,23008,2021-01-13 15:21:52:810
0.40477,0.57925,9.01316,-0.04465,0.99819,9.75561,1.12888,-0.17332,-0.09427,-5.158,29.675,-14.212,9.2,-5.842,0.262,5.0,42.9344,22.9999,120.21971,42.6,NaN,,21.6,,0 / 0,23108,2021-01-13 15:21:52:910
0.41195,2.32287,5.92111,0.03711,2.43144,9.50038,1.2529,-0.08083,-0.12645,-5.016,27.47,-17.628,9.144,-14.356,-0.224,5.0,42.9344,22.9999,120.21971,42.6,NaN,,21.6,,0 / 0,23208,2021-01-13 15:21:53:010
-0.67781,2.75159,5.89716,-0.02457,2.92793,9.35933,0.30488,0.1482,-0.20397,-2.839,26.196,-17.804,5.764,-17.371,0.15,5.0,42.9344,22.9999,120.21971,42.6,NaN,,21.6,,0 / 0,23308,2021-01-13 15:21:53:110
0.51973,3.16354,6.78574,-0.2267,2.94071,9.35261,-0.19874,0.16788,0.11777,-3.373,26.28,-18.013,6.494,-17.45,1.389,5.0,41.7902,22.9999,120.21971,42.6,NaN,,21.6,,0 / 0,23408,2021-01-13 15:21:53:210
-0.74248,2.34682,12.41417,-0.18519,2.15749,9.56459,-1.06572,0.17347,0.13661,-2.401,27.37,-14.934,4.42,-12.709,1.109,5.0,41.7902,22.9999,120.21971,42.6,NaN,,21.6,,0 / 0,23508,2021-01-13 15:21:53:310
0.67302,2.29652,14.51466,-0.29906,1.70214,9.65317,-0.6247,0.30077,0.3583,-0.814,27.954,-13.371,2.692,-9.995,1.775,5.0,41.7902,22.9999,120.21971,42.6,NaN,,21.6,,0 / 0,23608,2021-01-13 15:21:53:410
0.70655,0.37327,13.36502,0.04124,0.74597,9.77815,-0.30607,-0.33214,0.12408,-1.967,28.055,-10.543,3.886,-4.363,-0.242,5.0,42.4822,22.9999,120.21971,42.6,NaN,,21.6,,0 / 0,23709,2021-01-13 15:21:53:511
-0.84546,1.3361,9.31255,0.24364,1.8415,9.62912,1.2981,-0.14581,-0.01201,-1.814,27.799,-14.462,3.125,-10.823,-1.449,5.0,42.4822,22.9999,120.21971,42.6,NaN,,21.6,,0 / 0,23808,2021-01-13 15:21:53:610
0.06706,1.6283,7.16176,0.24746,2.42307,9.49936,0.80162,-0.20278,-0.16768,-1.043,26.509,-16.598,1.051,-14.305,-1.492,5.0,42.4822,22.9999,120.21971,42.6,NaN,,21.6,,0 / 0,23907,2021-01-13 15:21:53:709
-0.79756,2.93601,3.99068,0.10091,3.33848,9.22035,0.87978,0.32729,-0.22034,-1.086,24.068,-18.925,1.562,-19.903,-0.627,5.0,42.9155,22.9999,120.21971,42.6,NaN,,21.6,,0 / 0,24007,2021-01-13 15:21:53:809
-0.01677,2.82105,8.2659,-0.22006,3.59386,9.12174,-0.44223,-0.17673,-0.18888,-1.812,23.768,-18.878,4.799,-21.498,1.382,5.0,42.9155,22.9999,120.21971,42.6,NaN,,21.6,,0 / 0,24108,2021-01-13 15:21:53:910
-0.11736,3.51801,10.54362,-0.14582,2.92242,9.35995,-1.17378,-0.06703,-0.21469,-0.822,24.93,-15.003,2.493,-17.338,0.893,5.0,42.9155,22.9999,120.21971,42.6,NaN,,21.6,,0 / 0,24208,2021-01-13 15:21:54:010
-0.33771,2.68213,11.98785,-0.01482,2.07589,9.58441,-0.668,-0.13364,-0.02164,-1.613,25.065,-16.964,4.135,-12.221,0.089,5.0,42.9155,22.9999,120.21971,42.6,NaN,,21.6,,0 / 0,24310,2021-01-13 15:21:54:112
0.97719,-0.01952,15.84153,0.23678,1.2591,9.7226,-0.73899,-0.26116,0.24234,-2.532,27.69,-11.994,1.735,-10.211,-0.438,5.0,42.478,22.9999,120.21971,42.6,NaN,,21.6,,0 / 0,24409,2021-01-13 15:21:54:211
2.2873,0.5553,12.70877,0.46639,1.35348,9.7016,0.86044,-0.5388,-0.0346,-2.447,26.816,-13.893,2.646,-7.933,-2.752,5.0,42.478,22.9999,120.21971,42.6,NaN,,21.6,,0 / 0,24509,2021-01-13 15:21:54:311
0.82391,1.83906,7.12344,0.7553,2.59162,9.4278,1.34125,-0.07274,-0.45831,-5.576,23.239,-18.856,9.281,-15.324,-4.58,5.0,42.478,22.9999,120.21971,42.6,NaN,,21.6,,0 / 0,24607,2021-01-13 15:21:54:409
-0.0982,3.81979,2.97277,0.36101,4.0089,8.94253,0.96421,0.37314,-0.32794,-2.982,21.346,-20.574,4.425,-24.129,-2.312,5.0,42.4608,22.9999,120.21971,42.6,NaN,,21.6,,0 / 0,24708,2021-01-13 15:21:54:510
-0.36884,3.7671,4.04576,0.11639,4.2942,8.8157,0.18716,0.36346,-0.13832,-1.922,21.921,-18.782,3.56,-25.969,-0.756,5.0,42.4608,22.9999,120.21971,42.6,NaN,,21.6,,0 / 0,24809,2021-01-13 15:21:54:611
0.70415,3.13001,10.11729,-0.13163,3.55475,9.13876,-1.10789,-0.07598,0.43738,-0.802,23.57,-16.307,2.502,-21.253,0.825,5.0,42.4608,22.9999,120.21971,42.6,NaN,,21.6,,0 / 0,24910,2021-01-13 15:21:54:712
0.10778,3.00786,11.6717,0.05538,2.35859,9.51863,-1.00526,0.24513,0.62648,2.168,25.724,-12.867,355.814,-13.917,-0.333,5.0,43.4826,22.9999,120.21971,42.6,NaN,,21.6,,0 / 0,25008,2021-01-13 15:21:54:810
2.8717,0.77565,16.2008,0.20212,1.80275,9.63741,-1.27751,-0.13221,0.54346,3.245,28.701,-9.657,353.961,-10.593,-1.201,5.0,43.4826,22.9999,120.21971,42.6,NaN,,21.6,,0 / 0,25108,2021-01-13 15:21:54:910
1.36999,0.32058,13.77218,0.67802,0.98551,9.73342,-0.12211,-0.44624,0.43049,3.343,27.772,-8.786,353.402,-6.213,-2.119,5.0,43.4826,22.9999,120.21971,42.6,NaN,,21.6,,0 / 0,25208,2021-01-13 15:21:55:010
-0.11975,1.08222,9.9688,0.75511,2.24787,9.51563,0.7883,0.02978,-0.19291,3.368,27.249,-13.088,352.163,-13.251,-4.537,5.0,43.6083,22.9999,120.21971,42.6,NaN,,21.6,,0 / 0,25308,2021-01-13 15:21:55:110
1.19035,2.2582,6.3642,0.72769,2.58837,9.43086,0.70464,-0.20045,-0.31945,2.467,24.596,-14.901,353.59,-15.304,-4.412,5.0,43.6083,22.9999,120.21971,42.6,NaN,,21.6,,0 / 0,25408,2021-01-13 15:21:55:210
-0.2922,3.87009,6.13188,0.55411,3.69481,9.06707,0.56841,0.50791,-0.39317,1.201,23.217,-16.502,355.794,-22.133,-3.497,5.0,43.6083,22.9999,120.21971,42.6,NaN,,21.6,,0 / 0,25508,2021-01-13 15:21:55:310
0.21077,3.5731,7.31265,0.11003,4.12936,8.89419,0.35981,0.15714,-0.41079,-1.548,25.354,-18.773,3.292,-24.903,-0.709,5.0,43.6083,22.9999,120.21971,42.6,NaN,,21.6,,0 / 0,25609,2021-01-13 15:21:55:411
0.23711,4.45928,6.37857,0.15632,4.08226,8.91522,-0.11716,-0.15596,-0.3172,-0.881,24.298,-18.304,1.337,-24.6,-1.005,5.0,42.3805,22.9999,120.21971,42.6,NaN,,21.6,,0 / 0,25708,2021-01-13 15:21:55:510
-1.00354,2.37317,9.37003,0.11431,3.78557,9.04582,-0.52786,-0.09627,-0.3601,-0.28,27.645,-17.451,359.62,-22.707,-0.724,5.0,42.3805,22.9999,120.21971,42.6,NaN,,21.6,,0 / 0,25808,2021-01-13 15:21:55:610
2.79027,2.40191,8.59402,-0.13224,3.04928,9.31959,-0.758,0.49902,0.24131,0.221,27.774,-14.851,0.39,-18.116,0.813,5.0,42.3805,22.9999,120.21971,42.6,NaN,,21.6,,0 / 0,25908,2021-01-13 15:21:55:710
1.13527,-0.05784,14.46436,-0.14199,2.10993,9.57593,-1.72718,-0.12178,-0.52887,0.297,30.159,-12.845,0.344,-12.425,0.849,5.0,59.9221,22.9999,120.21971,42.6,NaN,,21.6,,0 / 0,26008,2021-01-13 15:21:55:810
1.66937,-0.16083,12.48363,0.04329,1.15983,9.73773,0.15199,-0.36955,-1.02017,-2.778,30.86,-10.056,5.282,-6.792,-0.255,5.0,59.9221,22.9999,120.21971,42.6,NaN,,21.6,,0 / 0,26108,2021-01-13 15:21:55:910
2.4813,0.47866,10.33045,0.17139,1.61147,9.67182,0.48517,-0.15271,-1.23179,-9.578,30.646,-10.773,16.827,-9.458,-1.015,5.0,59.9221,22.9999,120.21971,42.6,NaN,,21.6,,0 / 0,26207,2021-01-13 15:21:56:009
2.48849,0.67266,9.29338,0.30628,2.12793,9.5681,0.83149,-0.53942,-1.86894,-11.08,29.657,-15.004,17.868,-12.532,-1.833,5.0,60.686,22.9999,120.21971,42.6,NaN,,21.6,,0 / 0,26308,2021-01-13 15:21:56:110
1.88014,1.68817,7.64557,0.30809,2.88373,9.36801,0.51867,-0.39121,-1.97497,-19.36,24.489,-15.588,33.567,-17.101,-1.884,5.0,60.686,22.9999,120.21971,42.6,NaN,,21.6,,0 / 0,26408,2021-01-13 15:21:56:210
1.51369,1.65464,7.91621,0.14859,3.2622,9.24697,0.19812,-0.61966,-2.40296,-22.79,20.822,-15.738,42.007,-19.43,-0.921,5.0,60.686,22.9999,120.21971,42.6,NaN,,21.6,,0 / 0,26509,2021-01-13 15:21:56:311
-0.86223,2.25581,7.60964,-0.00987,3.30246,9.23385,0.05257,-0.55383,-2.48835,-27.395,11.202,-14.05,60.858,-19.679,0.061,5.0,51.5428,22.9999,120.21971,42.6,NaN,,21.6,,0 / 0,26608,2021-01-13 15:21:56:410
-1.24784,2.90966,5.9738,-0.31313,3.15836,9.27885,-0.22439,-0.48833,-1.91111,-30.312,9.159,-13.577,67.362,-18.788,1.933,5.0,51.5428,22.9999,120.21971,42.6,NaN,,21.6,,0 / 0,26708,2021-01-13 15:21:56:510
-2.62261,2.48573,9.85144,-0.52408,2.40572,9.49254,-0.72006,-0.35426,-1.54821,-30.675,4.086,-13.775,77.751,-14.2,3.16,5.0,51.5428,22.9999,120.21971,42.6,NaN,,21.6,,0 / 0,26808,2021-01-13 15:21:56:610
-1.78913,1.41753,13.55663,-0.67724,1.83814,9.60901,-1.03867,-0.30478,-0.34588,-30.599,5.723,-10.781,76.616,-10.803,4.032,5.0,51.5428,22.9999,120.21971,42.6,NaN,,21.6,,0 / 0,26908,2021-01-13 15:21:56:710
-0.56524,0.9433,13.69554,-0.20615,0.71189,9.7786,-0.87464,-0.53344,-0.05716,-31.381,8.19,-10.653,74.38,-4.163,1.208,5.0,42.4986,22.9999,120.21971,42.6,NaN,,21.6,,0 / 0,27008,2021-01-13 15:21:56:810
-1.25263,-0.12251,12.75428,0.0803,0.99652,9.75556,0.7328,-0.25081,-0.14014,-32.41,5.71,-11.519,77.255,-5.832,-0.472,5.0,42.4986,22.9999,120.21971,42.6,NaN,,21.6,,0 / 0,27109,2021-01-13 15:21:56:911
0.33531,1.02953,6.18697,0.08835,1.59782,9.6752,1.24081,-0.197,-0.07923,-32.575,3.588,-11.912,79.744,-9.377,-0.523,5.0,42.4986,22.9999,120.21971,42.6,NaN,,21.6,,0 / 0,27208,2021-01-13 15:21:57:010
-0.64428,2.39951,6.28277,0.34085,2.97009,9.33985,0.61903,0.16472,-0.33496,-32.186,1.914,-13.805,78.335,-17.63,-2.09,5.0,42.2568,22.9999,120.21971,42.6,NaN,,21.6,,0 / 0,27308,2021-01-13 15:21:57:110
-1.22628,3.05576,5.78459,-0.14931,3.37537,9.20625,0.39136,0.36435,-0.38534,-32.592,0.507,-14.945,79.906,-20.132,0.929,5.0,42.2568,22.9999,120.21971,42.6,NaN,,21.6,,0 / 0,27409,2021-01-13 15:21:57:211
-1.34125,2.93122,8.66827,-0.30151,3.16073,9.27843,-0.672,0.06005,-0.32006,-30.064,-0.044,-16.468,80.984,-18.802,1.861,5.0,42.2568,22.9999,120.21971,42.6,NaN,,21.6,,0 / 0,27509,2021-01-13 15:21:57:311
-0.55087,2.74919,11.26693,-0.26839,2.36963,9.51227,-0.73451,-0.21607,0.07324,-33.073,3.22,-15.097,79.306,-13.983,1.616,5.0,42.6623,22.9999,120.21971,42.6,NaN,,21.6,,0 / 0,27608,2021-01-13 15:21:57:410
1.2167,0.43794,16.92651,0.12721,1.43369,9.70045,-0.8841,-0.42774,0.00165,-35.093,4.417,-15.302,79.871,-8.406,-0.751,5.0,42.6623,22.9999,120.21971,42.6,NaN,,21.6,,0 / 0,27708,2021-01-13 15:21:57:510
1.27658,0.37088,12.12437,0.30546,0.89477,9.76097,-0.48758,-0.19594,-0.05293,-34.576,3.435,-15.375,82.644,-5.235,-1.792,5.0,42.6623,22.9999,120.21971,42.6,NaN,,21.6,,0 / 0,27808,2021-01-13 15:21:57:610
0.39758,1.21155,7.85873,0.29424,2.05788,9.58379,1.03302,0.10409,-0.25955,-34.095,1.228,-16.307,82.259,-12.113,-1.759,5.0,42.2887,22.9999,120.21971,42.6,NaN,,21.6,,0 / 0,27908,2021-01-13 15:21:57:710
-0.54129,2.46178,5.7319,-0.11322,2.91903,9.36145,0.47536,0.30584,-0.19754,-33.014,-1.15,-18.486,82.651,-17.317,0.693,5.0,42.2887,22.9999,120.21971,42.6,NaN,,21.6,,0 / 0,28008,2021-01-13 15:21:57:810
-0.82151,3.00307,4.8577,-0.28743,3.14155,9.28539,0.16183,0.17986,-0.04668,-34.104,-3.109,-18.175,85.721,-18.684,1.773,5.0,42.2887,22.9999,120.21971,42.6,NaN,,21.6,,0 / 0,28108,2021-01-13 15:21:57:910
0.15089,2.79709,8.17728,-0.30074,2.94037,9.35062,-0.56126,-0.11854,0.20827,-32.039,1.383,-20.576,78.005,-17.448,1.842,5.0,42.2887,22.9999,120.21971,42.6,NaN,,21.6,,0 / 0,28208,2021-01-13 15:21:58:010
0.10778,2.96954,12.92193,-0.1176,2.10092,9.57824,-0.69317,-0.04823,0.52429,-33.153,2.761,-19.647,77.898,-12.371,0.703,5.0,42.216,22.9999,120.21971,42.6,NaN,,21.6,,0 / 0,28308,2021-01-13 15:21:58:110
0.85744,-0.39076,20.68678,-0.07148,1.43578,9.70071,-1.31644,0.06155,0.36382,-32.945,8.851,-19.736,70.411,-8.419,0.422,5.0,42.216,22.9999,120.21971,42.6,NaN,,21.6,,0 / 0,28408,2021-01-13 15:21:58:210
0.40956,0.70858,8.90538,0.58544,0.73889,9.76123,1.23777,-0.07482,0.41952,-33.764,8.538,-20.264,72.01,-4.321,-3.432,5.0,42.216,22.9999,120.21971,42.6,NaN,,21.6,,0 / 0,28508,2021-01-13 15:21:58:310
0.81433,1.63788,6.97495,0.5725,2.1653,9.54747,0.76206,0.18964,0.16417,-32.613,4.451,-21.279,74.2,-12.756,-3.432,5.0,42.9885,22.9999,120.21971,42.6,NaN,,21.6,,0 / 0,28608,2021-01-13 15:21:58:410
-0.89816,2.0139,6.40252,0.33213,2.95186,9.34594,0.66755,0.23028,-0.19793,-34.597,2.685,-21.224,75.167,-15.364,-3.118,5.0,42.9885,22.9999,120.21971,42.6,NaN,,21.6,,0 / 0,28708,2021-01-13 15:21:58:510
-0.57482,3.01265,5.16666,0.07442,3.34164,9.21945,0.01797,-0.04048,-0.22765,-34.425,-0.643,-23.119,78.319,-19.923,-0.463,5.0,42.9885,22.9999,120.21971,42.6,NaN,,21.6,,0 / 0,28808,2021-01-13 15:21:58:610
-0.56763,2.78512,10.4071,0.06338,3.03233,9.32584,-0.91763,-0.19985,-0.27629,-34.902,-0.375,-24.216,77.859,-18.012,-0.389,5.0,41.7039,22.9999,120.21971,42.6,NaN,,21.6,,0 / 0,28908,2021-01-13 15:21:58:710
-0.23711,2.96954,11.5735,0.13199,2.50874,9.47941,-0.75936,-0.19794,-0.17373,-34.465,2.972,-24.676,74.366,-14.822,-0.798,5.0,41.7039,22.9999,120.21971,42.6,NaN,,21.6,,0 / 0,29008,2021-01-13 15:21:58:810
1.08018,-0.12011,15.808,0.36092,1.56233,9.67467,-1.196,-0.06036,-0.10556,-34.722,3.941,-24.291,76.825,-9.167,-2.136,5.0,41.7039,22.9999,120.21971,42.6,NaN,,21.6,,0 / 0,29108,2021-01-13 15:21:58:910
1.81547,0.50021,12.04773,0.48099,0.85862,9.75714,1.04258,-0.01239,0.06049,-35.059,4.422,-24.723,79.384,-5.023,-2.822,5.0,42.7614,22.9999,120.21971,42.6,NaN,,21.6,,0 / 0,29209,2021-01-13 15:21:59:011
1.03707,1.64027,6.51509,0.32742,2.40232,9.50221,1.52942,0.21961,-0.11681,-34.159,2.074,-25.086,79.38,-9.014,-2.746,5.0,42.7614,22.9999,120.21971,42.6,NaN,,21.6,,0 / 0,29309,2021-01-13 15:21:59:111
0.28741,2.58393,3.8326,0.21732,3.12403,9.2932,1.28247,0.1245,-0.32053,-34.306,-4.331,-24.046,82.999,-18.576,-1.34,5.0,42.7614,22.9999,120.21971,42.6,NaN,,21.6,,0 / 0,29408,2021-01-13 15:21:59:210
-0.7784,2.58872,3.52603,-0.25134,3.57407,9.12871,-0.14909,0.4176,-0.30214,-33.73,-5.755,-26.42,84.169,-21.374,1.577,5.0,42.7614,22.9999,120.21971,42.6,NaN,,21.6,,0 / 0,29508,2021-01-13 15:21:59:310
0.582,3.08929,10.80229,-0.10306,2.66584,9.43679,-1.30207,-0.04829,0.43026,-34.727,-1.046,-28.479,77.189,-19.798,1.834,5.0,42.2246,22.9999,120.21971,42.6,NaN,,21.6,,0 / 0,29608,2021-01-13 15:21:59:410
-0.44549,2.65099,14.11708,-0.10495,1.97241,9.60567,-1.06028,-0.00177,0.36714,-34.065,2.636,-28.957,75.779,-11.603,0.626,5.0,42.2246,22.9999,120.21971,42.6,NaN,,21.6,,0 / 0,29708,2021-01-13 15:21:59:510
0.79038,1.18042,14.09792,-0.07473,0.9935,9.75591,0.13197,-0.18955,0.44003,-33.652,5.483,-30.784,76.708,-5.815,0.439,5.0,42.2246,22.9999,120.21971,42.6,NaN,,21.6,,0 / 0,29808,2021-01-13 15:21:59:610
-0.27064,1.61153,10.09574,0.24606,2.04521,9.58785,1.36097,-0.27064,0.2503,-34.103,2.763,-29.689,74.247,-12.038,-1.47,5.0,43.7222,22.9999,120.21971,42.6,NaN,,21.6,,0 / 0,29909,2021-01-13 15:21:59:711
0.28501,1.6259,8.22757,0.46736,2.70333,9.41509,1.18732,-0.38247,0.08552,-37.237,-1.552,-27.383,80.411,-16.002,-2.842,5.0,43.7222,22.9999,120.21971,42.6,NaN,,21.6,,0 / 0,30008,2021-01-13 15:21:59:810
-0.45986,2.49531,3.4949,0.66829,3.67642,9.06685,0.85981,-0.04369,-0.34126,-36.647,-4.016,-26.976,78.024,-22.018,-4.215,5.0,43.7222,22.9999,120.21971,42.6,NaN,,21.6,,0 / 0,30108,2021-01-13 15:21:59:910
-0.25388,3.10367,6.54862,0.2168,4.06915,8.91994,-0.35946,0.14197,-0.17025,-34.729,-6.141,-29.764,77.227,-24.321,-2.841,5.0,42.8389,22.9999,120.21971,42.6,NaN,,21.6,,0 / 0,30210,2021-01-13 15:22:00:012
-0.42393,3.16833,8.93173,0.21524,3.68183,9.0867,-0.84625,-0.18513,-0.28111,-35.629,-4.575,-28.366,80.053,-22.052,-1.357,5.0,42.8389,22.9999,120.21971,42.6,NaN,,21.6,,0 / 0,30308,2021-01-13 15:22:00:110
0.38561,2.29652,12.79739,0.29121,2.52678,9.47106,-0.90512,-0.1611,-0.18288,-35.455,-0.427,-29.635,76.777,-14.931,-1.761,5.0,42.8389,22.9999,120.21971,42.6,NaN,,21.6,,0 / 0,30409,2021-01-13 15:22:00:211
0.67302,0.44273,16.63191,0.29369,1.33882,9.71039,-1.15254,0.10357,0.00298,-34.077,3.681,-28.519,76.317,-7.847,-1.732,5.0,42.7755,22.9999,120.21971,42.6,NaN,,21.6,,0 / 0,30508,2021-01-13 15:22:00:310
1.08018,1.06066,10.93402,0.47875,1.56608,9.66895,0.9997,0.04727,-0.06841,-35.206,-1.072,-30.127,83.06,-9.189,-2.835,5.0,42.7755,22.9999,120.21971,42.6,NaN,,21.6,,0 / 0,30607,2021-01-13 15:22:00:409
0.22274,2.21988,6.06961,0.38733,2.82376,9.38332,1.40441,0.13061,-0.22304,-34.396,-5.73,-28.523,84.768,-16.735,-2.364,5.0,42.7755,22.9999,120.21971,42.6,NaN,,21.6,,0 / 0,30708,2021-01-13 15:22:00:510
-0.51255,3.32162,4.29725,-0.02756,3.91532,8.9911,0.23965,0.29983,-0.18454,-33.03,-10.795,-30.773,87.911,-21.104,-1.35,5.0,42.587,22.9999,120.21971,42.6,NaN,,21.6,,0 / 0,30808,2021-01-13 15:22:00:610
-0.50536,3.45095,5.72711,-0.16947,3.82161,9.02978,-0.42521,0.09564,-0.02721,-32.72,-8.487,-29.738,83.068,-22.936,1.075,5.0,42.587,22.9999,120.21971,42.6,NaN,,21.6,,0 / 0,30908,2021-01-13 15:22:00:710
0.66823,3.44856,9.22632,-0.13391,3.39428,9.19953,-0.93391,0.1382,0.58115,-33.391,-5.064,-32.744,78.907,-20.25,0.834,5.0,42.587,22.9999,120.21971,42.6,NaN,,21.6,,0 / 0,31012,2021-01-13 15:22:00:814
0.66583,2.44023,12.99618,-0.20343,2.00862,9.59659,-1.46212,0.26107,0.43545,-32.801,-1.019,-34.961,79.841,-11.819,1.214,5.0,42.587,22.9999,120.21971,42.6,NaN,,21.6,,0 / 0,31108,2021-01-13 15:22:00:910
-0.12933,0.30142,13.1327,-0.31021,1.06264,9.74397,0.21463,-0.17138,0.16951,-32.179,5.581,-34.408,73.912,-6.221,1.823,5.0,44.354,22.9999,120.21971,42.6,NaN,,21.6,,0 / 0,31208,2021-01-13 15:22:01:010
-0.67302,0.75409,10.01909,-0.11435,1.59203,9.67589,1.0283,-0.11348,-0.0269,-32.918,4.036,-35.621,73.773,-9.343,0.677,5.0,44.354,22.9999,120.21971,42.6,NaN,,21.6,,0 / 0,31309,2021-01-13 15:22:01:111
-0.78559,1.2834,6.08637,-0.06958,2.46254,9.49218,0.84061,-0.14514,-0.2755,-34.191,-1.224,-33.237,78.036,-14.543,0.42,5.0,44.354,22.9999,120.21971,42.6,NaN,,21.6,,0 / 0,31408,2021-01-13 15:22:01:210
-0.71613,2.74919,3.61944,-0.11694,2.89269,9.36958,0.63751,0.2894,-0.0548,-33.387,-5.124,-33.792,81.275,-17.156,0.715,5.0,44.6098,22.9999,120.21971,42.6,NaN,,21.6,,0 / 0,31508,2021-01-13 15:22:01:310
0.27543,2.86416,9.02514,-0.21039,3.19536,9.26908,-0.53673,-0.39444,-0.10542,-33.135,-4.846,-34.199,79.752,-19.016,1.3,5.0,44.6098,22.9999,120.21971,42.6,NaN,,21.6,,0 / 0,31608,2021-01-13 15:22:01:410
0.12454,2.9384,10.32087,0.16313,2.55383,9.46688,-0.57216,-0.33359,-0.13575,-33.958,-3.807,-34.844,80.807,-15.095,-0.987,5.0,44.6098,22.9999,120.21971,42.6,NaN,,21.6,,0 / 0,31708,2021-01-13 15:22:01:510
1.04665,0.9457,15.03439,0.32988,1.91438,9.61232,-1.11646,-0.10434,0.09033,-35.515,-0.356,-33.872,78.83,-11.257,-1.966,5.0,43.1602,22.9999,120.21971,42.6,NaN,,21.6,,0 / 0,31814,2021-01-13 15:22:01:616
0.93887,-0.17041,15.55891,0.48212,0.89987,9.75337,-0.34984,-0.15739,-0.01171,-35.538,3.277,-34.32,79.64,-5.265,-2.83,5.0,43.1602,22.9999,120.21971,42.6,NaN,,21.6,,0 / 0,31909,2021-01-13 15:22:01:711
0.54847,1.00797,8.56528,0.51464,1.78022,9.62997,1.01249,0.12236,-0.44201,-37.269,-1.315,-35.188,84.23,-7.042,-3.13,5.0,43.1602,22.9999,120.21971,42.6,NaN,,21.6,,0 / 0,32008,2021-01-13 15:22:01:810
-0.11736,2.00911,5.03014,0.35919,2.3105,9.52381,0.83252,0.16617,-0.35088,-35.236,-3.327,-33.97,80.895,-13.627,-2.16,5.0,43.1602,22.9999,120.21971,42.6,NaN,,21.6,,0 / 0,32108,2021-01-13 15:22:01:910
-0.50297,3.05337,3.98349,-0.02209,3.13974,9.29042,0.25358,0.17113,0.02726,-34.255,-9.275,-34.797,85.548,-18.673,0.136,5.0,43.1018,22.9999,120.21971,42.6,NaN,,21.6,,0 / 0,32209,2021-01-13 15:22:02:011
-0.20837,2.22228,6.5606,-0.08796,3.02763,9.32717,-0.43381,0.0479,0.15245,-34.439,-8.429,-33.52,85.355,-17.983,0.54,5.0,43.1018,22.9999,120.21971,42.6,NaN,,21.6,,0 / 0,32308,2021-01-13 15:22:02:110
0.81193,2.80428,11.48728,0.12289,2.55287,9.46774,-0.93613,0.21738,0.57807,-34.868,-2.265,-37.431,77.238,-15.089,-0.744,5.0,43.1018,22.9999,120.21971,42.6,NaN,,21.6,,0 / 0,32408,2021-01-13 15:22:02:210
-0.08143,1.9181,16.93369,0.21652,1.58329,9.67557,-0.75032,-0.20721,0.26565,-33.964,1.012,-37.028,77.946,-9.291,-1.282,5.0,42.9796,22.9999,120.21971,42.6,NaN,,21.6,,0 / 0,32508,2021-01-13 15:22:02:310
0.1437,1.19718,9.47302,0.4881,1.61292,9.66078,1.11651,-0.12887,0.20016,-36.324,-1.058,-36.2,83.988,-7.224,-1.767,5.0,42.9796,22.9999,120.21971,42.6,NaN,,21.6,,0 / 0,32608,2021-01-13 15:22:02:410
0.49339,1.24029,11.64775,0.57531,2.27221,9.52242,0.75055,-0.17509,-0.01413,-35.478,-3.068,-35.016,80.208,-13.397,-3.457,5.0,42.9796,22.9999,120.21971,42.6,NaN,,21.6,,0 / 0,32708,2021-01-13 15:22:02:510
-0.20358,2.5025,5.27444,0.49909,3.03228,9.31271,1.21177,-0.03005,-0.20863,-36.537,-7.273,-33.384,83.281,-18.011,-3.068,5.0,45.2381,22.9999,120.21971,42.6,NaN,,21.6,,0 / 0,32809,2021-01-13 15:22:02:611
-0.67781,3.84614,3.11887,0.42731,4.19772,8.85251,0.90397,0.02819,-0.13765,-36.173,-12.234,-32.576,83.35,-25.344,-2.763,5.0,45.2381,22.9999,120.21971,42.6,NaN,,21.6,,0 / 0,32909,2021-01-13 15:22:02:711
0.22993,3.97547,6.63964,0.20812,4.02757,8.939,-0.79502,-0.02152,-0.03181,-35.79,-9.487,-35.206,79.517,-24.249,-1.334,5.0,45.2381,22.9999,120.21971,42.6,NaN,,21.6,,0 / 0,33008,2021-01-13 15:22:02:810
-0.07425,3.22102,8.27069,0.31942,3.17962,9.27138,-0.87262,-0.27129,-0.16217,-36.306,-7.682,-33.938,83.686,-18.919,-1.973,5.0,43.3311,22.9999,120.21971,42.6,NaN,,21.6,,0 / 0,33108,2021-01-13 15:22:02:910
1.15922,0.82115,14.55298,0.29479,1.8121,9.63326,-0.82678,-0.29158,-0.01796,-36.193,-2.626,-37.306,83.308,-10.648,-1.753,5.0,43.3311,22.9999,120.21971,42.6,NaN,,21.6,,0 / 0,33208,2021-01-13 15:22:03:010
1.58075,0.58404,13.41292,0.57448,1.47215,9.67849,-0.18607,-0.24096,-0.07162,-36.972,-2.918,-36.796,85.216,-8.634,-3.397,5.0,43.3311,22.9999,120.21971,42.6,NaN,,21.6,,0 / 0,33308,2021-01-13 15:22:03:110
1.23347,1.5301,10.81426,0.59533,1.72659,9.63508,0.8352,0.12759,-0.36708,-37.027,-5.585,-34.637,88.936,-10.141,-3.536,5.0,43.3311,22.9999,120.21971,42.6,NaN,,21.6,,0 / 0,33408,2021-01-13 15:22:03:210
0.34729,2.43544,7.08752,0.45554,2.94766,9.34207,1.26722,-0.01783,-0.38386,-36.895,-9.234,-34.456,86.49,-17.492,-2.792,5.0,45.441,22.9999,120.21971,42.6,NaN,,21.6,,0 / 0,33510,2021-01-13 15:22:03:312
-0.24909,3.87009,3.18593,0.4042,3.62226,9.10419,0.43742,0.32148,-0.33297,-35.416,-14.78,-33.023,92.032,-21.677,-2.542,5.0,45.441,22.9999,120.21971,42.6,NaN,,21.6,,0 / 0,33609,2021-01-13 15:22:03:411
-0.24669,3.27372,4.36431,-0.03954,3.94604,8.97761,-0.25436,0.13974,-0.17032,-35.336,-15.703,-32.572,92.332,-23.727,0.252,5.0,45.441,22.9999,120.21971,42.6,NaN,,21.6,,0 / 0,33709,2021-01-13 15:22:03:511
0.63949,3.27132,10.9891,0.2614,3.0268,9.32419,-1.05694,-0.09317,0.43142,-36.634,-11.656,-34.044,90.961,-17.978,-1.606,5.0,44.5104,22.9999,120.21971,42.6,NaN,,21.6,,0 / 0,33808,2021-01-13 15:22:03:610
0.65625,2.23425,15.24276,0.35237,2.40633,9.50031,-1.30237,-0.07551,0.37503,-37.171,-8.311,-35.511,87.737,-14.204,-2.124,5.0,44.5104,22.9999,120.21971,42.6,NaN,,21.6,,0 / 0,33908,2021-01-13 15:22:03:710
0.51734,1.3337,10.72325,0.71668,1.424,9.67621,0.57359,-0.20706,0.31707,-37.881,-5.23,-35.018,89.142,-8.349,-4.236,5.0,44.5104,22.9999,120.21971,42.6,NaN,,21.6,,0 / 0,34008,2021-01-13 15:22:03:810
0.65865,1.01755,11.71481,0.92715,2.10082,9.53401,0.54711,-0.12428,0.11765,-38.615,-7.426,-32.184,90.487,-10.712,-5.125,5.0,45.9891,22.9999,120.21971,42.6,NaN,,21.6,,0 / 0,34107,2021-01-13 15:22:03:909
0.06706,2.02827,6.00494,0.88649,2.3465,9.48043,1.28636,0.04441,-0.13684,-39.944,-10.121,-31.155,92.222,-13.844,-5.342,5.0,45.9891,22.9999,120.21971,42.6,NaN,,21.6,,0 / 0,34208,2021-01-13 15:22:04:010
0.2443,3.59945,4.15594,0.66734,3.70133,9.05678,1.02792,0.41547,-0.11655,-38.76,-12.509,-30.867,88.886,-22.175,-4.214,5.0,45.9891,22.9999,120.21971,42.6,NaN,,21.6,,0 / 0,34309,2021-01-13 15:22:04:111
0.17005,3.0845,6.84561,0.23809,3.96437,8.96646,-0.39108,-0.32917,-0.41887,-36.051,-15.346,-30.761,91.313,-23.844,-1.521,5.0,44.1425,22.9999,120.21971,42.6,NaN,,21.6,,0 / 0,34408,2021-01-13 15:22:04:210
-0.22035,2.70129,10.91485,0.40882,3.53835,9.13692,-0.98588,-0.17848,-0.31046,-36.771,-13.888,-31.132,92.071,-21.15,-2.562,5.0,44.1425,22.9999,120.21971,42.6,NaN,,21.6,,0 / 0,34507,2021-01-13 15:22:04:309
1.63105,1.15646,12.79739,0.52091,2.20138,9.54217,-0.92376,-0.26849,0.06093,-38.652,-11.648,-33.065,95.872,-12.972,-3.125,5.0,44.1425,22.9999,120.21971,42.6,NaN,,21.6,,0 / 0,34608,2021-01-13 15:22:04:410
1.29334,0.08347,16.74927,0.71721,1.04162,9.72476,-1.0427,-0.06419,-0.07052,-37.435,-9.132,-31.607,98.674,-6.097,-4.218,5.0,44.1425,22.9999,120.21971,42.6,NaN,,21.6,,0 / 0,34708,2021-01-13 15:22:04:510
1.01551,1.38639,9.71492,0.76935,1.05658,9.71916,1.06761,0.33822,-0.17983,-37.759,-12.149,-31.172,103.148,-6.185,-4.526,5.0,44.8448,22.9999,120.21971,42.6,NaN,,21.6,,0 / 0,34809,2021-01-13 15:22:04:611
0.23232,2.23425,6.4624,0.43038,2.33837,9.51405,1.35679,0.15038,-0.24772,-36.873,-15.747,-29.282,103.002,-13.795,-2.59,5.0,44.8448,22.9999,120.21971,42.6,NaN,,21.6,,0 / 0,34908,2021-01-13 15:22:04:710
0.21556,2.84021,2.24945,0.05321,3.65561,9.09968,0.44001,0.33711,-0.22749,-35.733,-19.559,-27.055,103.213,-21.886,-0.335,5.0,44.8448,22.9999,120.21971,42.6,NaN,,21.6,,0 / 0,35009,2021-01-13 15:22:04:811
-0.25627,3.12283,6.92465,-0.08758,3.64531,9.10354,-0.7364,-0.10181,-0.13767,-35.917,-21.686,-27.75,105.627,-21.822,0.551,5.0,44.2838,22.9999,120.21971,42.6,NaN,,21.6,,0 / 0,35107,2021-01-13 15:22:04:909
0.77361,2.75398,10.92922,0.05492,2.6113,9.45243,-1.49086,0.04961,0.47414,-35.669,-14.88,-30.422,100.151,-15.443,-0.333,5.0,44.2838,22.9999,120.21971,42.6,NaN,,21.6,,0 / 0,35208,2021-01-13 15:22:05:010
1.47537,0.05952,16.56485,0.16341,0.93198,9.7609,-1.42274,-0.04693,0.41712,-36.975,-11.433,-33.118,102.014,-5.453,-0.959,5.0,44.2838,22.9999,120.21971,42.6,NaN,,21.6,,0 / 0,35309,2021-01-13 15:22:05:111
0.01197,-1.02066,16.35887,0.51761,0.49111,9.78066,0.63415,-0.2601,0.21851,-39.781,-9.619,-28.089,102.435,-2.871,-3.029,5.0,45.7295,22.9999,120.21971,42.6,NaN,,21.6,,0 / 0,35409,2021-01-13 15:22:05:211
0.19161,0.50261,8.62755,0.75717,1.41856,9.67392,1.42866,0.00303,0.19226,-39.901,-12.513,-27.221,102.709,-8.317,-4.475,5.0,45.7295,22.9999,120.21971,42.6,NaN,,21.6,,0 / 0,35509,2021-01-13 15:22:05:311
0.95085,1.75763,5.99536,0.70841,2.78988,9.37471,1.30684,-0.00113,-0.17458,-39.184,-15.219,-24.911,99.891,-16.528,-4.321,5.0,45.7295,22.9999,120.21971,42.6,NaN,,21.6,,0 / 0,35608,2021-01-13 15:22:05:410
-0.15329,3.54436,4.0769,0.52631,3.45013,9.1646,0.60781,0.47745,-0.28443,-38.17,-18.673,-23.503,103.22,-20.598,-3.287,5.0,44.4331,22.9999,120.21971,42.6,NaN,,21.6,,0 / 0,35709,2021-01-13 15:22:05:511
0.4383,2.84739,5.56185,0.07616,3.48259,9.16713,-0.50003,-0.3022,-0.37274,-37.66,-19.255,-23.525,103.574,-20.801,-0.476,5.0,44.4331,22.9999,120.21971,42.6,NaN,,21.6,,0 / 0,35809,2021-01-13 15:22:05:611
0.10299,2.41149,9.68857,0.08332,2.66869,9.43618,-0.99128,0.06407,-0.29555,-37.281,-20.02,-24.05,108.943,-15.791,-0.506,5.0,44.4331,22.9999,120.21971,42.6,NaN,,21.6,,0 / 0,35908,2021-01-13 15:22:05:710
0.07904,1.54207,12.22736,0.18541,2.0859,9.58045,-1.34202,-0.26481,-0.01966,-36.264,-17.94,-26.362,108.552,-12.281,-1.109,5.0,44.4331,22.9999,120.21971,42.6,NaN,,21.6,,0 / 0,36008,2021-01-13 15:22:05:810
0.42393,-0.9057,14.01888,0.56562,0.53989,9.77543,-1.27777,-0.53148,-0.29707,-37.704,-15.611,-26.853,111.557,-3.156,-3.312,5.0,43.3143,22.9999,120.21971,42.6,NaN,,21.6,,0 / 0,36108,2021-01-13 15:22:05:910
0.21316,-0.35723,12.14593,0.65406,0.38603,9.7772,0.46811,0.22276,0.00632,-37.298,-17.398,-26.585,114.265,-2.256,-3.827,5.0,43.3143,22.9999,120.21971,42.6,NaN,,21.6,,0 / 0,36208,2021-01-13 15:22:06:010
-2.06216,0.79481,8.48385,0.39639,0.82071,9.76421,0.81816,0.48929,0.27577,-38.223,-18.111,-25.69,112.953,-4.801,-2.325,5.0,43.3143,22.9999,120.21971,42.6,NaN,,21.6,,0 / 0,36308,2021-01-13 15:22:06:110
-2.66333,-0.33088,11.29088,0.22612,1.47866,9.69189,0.50035,0.00158,1.38139,-38.49,-16.388,-25.128,107.668,-8.672,-1.337,5.0,44.0683,22.9999,120.21971,42.6,NaN,,21.6,,0 / 0,36408,2021-01-13 15:22:06:210
0.82391,0.73014,6.93423,0.30603,2.17787,9.55686,0.87905,0.34344,1.89469,-42.467,-14.71,-24.244,102.319,-12.831,-1.834,5.0,44.0683,22.9999,120.21971,42.6,NaN,,21.6,,0 / 0,36508,2021-01-13 15:22:06:310
1.0706,1.23311,8.13896,0.37593,2.40636,9.4994,-0.04114,0.63256,1.59267,-41.323,-6.149,-25.723,88.629,-14.204,-2.266,5.0,44.0683,22.9999,120.21971,42.6,NaN,,21.6,,0 / 0,36608,2021-01-13 15:22:06:410
-0.04551,1.05587,12.16269,0.1088,2.34611,9.52126,-0.10748,0.70007,1.72373,-41.897,-1.703,-27.779,83.334,-13.841,-0.655,5.0,43.6671,22.9999,120.21971,42.6,NaN,,21.6,,0 / 0,36708,2021-01-13 15:22:06:510
1.14964,1.37442,12.00941,-0.06378,1.76443,9.6464,-0.54878,0.07838,1.66285,-37.81,8.695,-30.43,69.6,-10.365,0.379,5.0,43.6671,22.9999,120.21971,42.6,NaN,,21.6,,0 / 0,36808,2021-01-13 15:22:06:610
-1.55201,1.52291,10.58194,0.01114,1.36514,9.71116,-0.33103,0.35224,1.67,-38.703,14.224,-31.341,64.981,-8.002,-0.066,5.0,43.6671,22.9999,120.21971,42.6,NaN,,21.6,,0 / 0,36908,2021-01-13 15:22:06:710
-2.54597,0.23675,9.07304,0.01655,1.42042,9.70322,0.40127,0.34117,1.92593,-34.727,17.516,-31.471,58.031,-7.514,0.132,5.0,53.1127,22.9999,120.21971,42.6,NaN,,21.6,,0 / 0,37008,2021-01-13 15:22:06:810
-0.02635,1.12533,8.22039,-0.03291,1.7956,9.64081,0.2908,0.32256,2.14997,-27.976,24.657,-34.43,42.405,-10.55,0.196,5.0,53.1127,22.9999,120.21971,42.6,NaN,,21.6,,0 / 0,37108,2021-01-13 15:22:06:910
-0.30897,1.3337,9.87779,-0.02104,1.85012,9.63052,-0.36677,0.27019,1.50799,-20.223,30.173,-34.679,29.11,-10.875,0.125,5.0,53.1127,22.9999,120.21971,42.6,NaN,,21.6,,0 / 0,37208,2021-01-13 15:22:07:010
1.267,1.98756,10.25142,-0.12842,1.40304,9.70492,-0.3917,0.51255,1.3259,-14.152,34.045,-34.264,20.577,-8.226,0.758,5.0,53.1127,22.9999,120.21971,42.6,NaN,,21.6,,0 / 0,37308,2021-01-13 15:22:07:110
1.25742,2.67974,9.99514,-0.52227,1.3496,9.69929,0.20924,0.28563,0.7995,-6.944,36.012,-35.516,12.413,-7.91,3.082,5.0,57.7554,22.9999,120.21971,42.6,NaN,,21.6,,0 / 0,37408,2021-01-13 15:22:07:210
1.10653,2.5504,8.08387,-0.52908,1.53815,9.67081,0.31077,-0.01389,0.3602,-5.562,33.23,-35.022,11.742,-9.024,3.131,5.0,57.7554,22.9999,120.21971,42.6,NaN,,21.6,,0 / 0,37508,2021-01-13 15:22:07:310
0.45506,3.04618,4.46969,-0.45316,1.99689,9.59049,0.41541,-0.14766,-0.11613,-5.788,32.219,-37.75,11.291,-11.749,2.705,5.0,57.7554,22.9999,120.21971,42.6,NaN,,21.6,,0 / 0,37607,2021-01-13 15:22:07:409
0.40956,2.07857,9.38679,-0.17135,2.00394,9.59819,-0.5112,-0.32628,-0.13415,-7.792,32.484,-37.384,12.563,-11.791,1.023,5.0,46.7746,22.9999,120.21971,42.6,NaN,,21.6,,0 / 0,37708,2021-01-13 15:22:07:510
1.46339,1.42471,15.02721,0.11708,1.38993,9.70694,-0.42253,-0.80962,-0.07522,-10.715,36.517,-34.837,14.264,-8.148,-0.691,5.0,46.7746,22.9999,120.21971,42.6,NaN,,21.6,,0 / 0,37808,2021-01-13 15:22:07:610
1.5089,0.18646,13.32431,0.98991,0.73983,9.72847,-0.59777,-0.39027,-0.32389,-12.167,38.502,-33.161,11.716,-4.327,-5.81,5.0,46.7746,22.9999,120.21971,42.6,NaN,,21.6,,0 / 0,37908,2021-01-13 15:22:07:710
1.38915,0.51458,9.84186,0.78753,1.12414,9.71012,0.96817,0.04587,-0.21956,-13.201,35.844,-35.965,14.101,-6.582,-4.637,5.0,45.3036,22.9999,120.21971,42.6,NaN,,21.6,,0 / 0,38008,2021-01-13 15:22:07:810
1.89451,1.384,7.93298,0.76811,1.69628,9.62824,0.87127,-0.07804,-0.28566,-13.206,32.906,-35.641,14.553,-9.961,-4.561,5.0,45.3036,22.9999,120.21971,42.6,NaN,,21.6,,0 / 0,38108,2021-01-13 15:22:07:910
-0.3425,1.98995,4.57268,0.79571,2.67926,9.39994,0.72648,0.6652,-0.37819,-14.376,26.851,-39.876,15.877,-15.855,-4.839,5.0,45.3036,22.9999,120.21971,42.6,NaN,,21.6,,0 / 0,38208,2021-01-13 15:22:08:010
0.45985,2.72524,3.61465,0.1542,3.26718,9.24511,0.30036,0.2701,-0.05904,-11.51,27.034,-40.854,16.107,-19.461,-0.956,5.0,44.5269,22.9999,120.21971,42.6,NaN,,21.6,,0 / 0,38308,2021-01-13 15:22:08:110
0.04551,2.61267,9.86581,0.26209,3.21542,9.26082,-1.19036,0.25538,0.31403,-10.845,29.341,-38.764,13.798,-19.14,-1.621,5.0,44.5269,22.9999,120.21971,42.6,NaN,,21.6,,0 / 0,38408,2021-01-13 15:22:08:210
0.27304,2.09534,11.12323,0.13034,2.01813,9.59586,-0.8348,0.19448,0.42636,-8.833,31.629,-38.634,12.142,-11.876,-0.778,5.0,44.5269,22.9999,120.21971,42.6,NaN,,21.6,,0 / 0,38508,2021-01-13 15:22:08:310
2.52202,0.92654,15.34815,0.44817,0.97928,9.74734,-0.66017,-0.5312,0.68946,-7.443,37.145,-33.705,7.687,-5.731,-2.633,5.0,44.5269,22.9999,120.21971,42.6,NaN,,21.6,,0 / 0,38608,2021-01-13 15:22:08:410
0.62751,1.76721,9.03711,0.87623,0.77797,9.73639,0.75622,-0.20042,0.48825,-7.644,36.588,-34.705,6.937,-4.55,-5.142,5.0,44.8415,22.9999,120.21971,42.6,NaN,,21.6,,0 / 0,38708,2021-01-13 15:22:08:510
1.06342,1.46064,9.54008,1.05386,2.06426,9.52883,0.72177,-0.07454,-0.23386,-7.009,30.139,-36.803,4.439,-12.151,-6.311,5.0,44.8415,22.9999,120.21971,42.6,NaN,,21.6,,0 / 0,38808,2021-01-13 15:22:08:610
1.0706,2.28455,4.87686,0.91682,2.95839,9.30472,0.87046,0.12167,-0.38349,-7.768,29.243,-39.213,5.965,-17.558,-5.627,5.0,44.8415,22.9999,120.21971,42.6,NaN,,21.6,,0 / 0,38908,2021-01-13 15:22:08:710
0.45267,2.86416,3.70327,0.76969,3.36884,9.17763,0.03854,0.2539,-0.43463,-7.698,24.144,-40.258,7.235,-20.092,-4.794,5.0,44.178,22.9999,120.21971,42.6,NaN,,21.6,,0 / 0,39008,2021-01-13 15:22:08:810
-0.09101,3.36952,8.12938,0.49978,3.26119,9.235,-0.63458,-0.24441,-0.47211,-9.275,25.443,-39.957,10.446,-19.424,-3.098,5.0,44.178,22.9999,120.21971,42.6,NaN,,21.6,,0 / 0,39108,2021-01-13 15:22:08:910
-0.14131,2.48573,10.47655,0.4371,2.48753,9.47584,-0.93862,-0.0417,-0.08479,-9.193,28.259,-38.227,11.124,-14.694,-2.641,5.0,44.178,22.9999,120.21971,42.6,NaN,,21.6,,0 / 0,39208,2021-01-13 15:22:09:010
0.66104,2.09294,10.47176,0.45787,1.97014,9.5958,-0.58466,-0.16212,0.20131,-8.281,29.511,-37.634,9.459,-11.589,-2.732,5.0,44.0902,22.9999,120.21971,42.6,NaN,,21.6,,0 / 0,39307,2021-01-13 15:22:09:109
1.83703,-0.81948,11.94713,0.75452,1.00429,9.72587,-0.47781,-0.1037,-0.03926,-8.703,31.502,-35.836,10.387,-10.016,-3.259,5.0,44.0902,22.9999,120.21971,42.6,NaN,,21.6,,0 / 0,39408,2021-01-13 15:22:09:210
2.07174,-0.64703,9.98556,0.87867,0.76073,9.73754,0.05265,-0.11721,-0.13334,-7.727,34.364,-34.338,8.145,-5.878,-4.436,5.0,44.0902,22.9999,120.21971,42.6,NaN,,21.6,,0 / 0,39508,2021-01-13 15:22:09:310
2.08132,0.59123,9.05867,0.70887,0.93524,9.73618,0.32298,0.31681,-0.63101,-8.636,32.328,-34.154,10.488,-5.472,-4.164,5.0,44.0632,22.9999,120.21971,42.6,NaN,,21.6,,0 / 0,39608,2021-01-13 15:22:09:410
3.14234,0.73972,10.10532,0.20663,1.26743,9.72221,0.21035,0.50447,-0.89418,-8.374,30.188,-36.707,11.79,-7.426,-1.218,5.0,44.0632,22.9999,120.21971,42.6,NaN,,21.6,,0 / 0,39709,2021-01-13 15:22:09:511
4.20815,0.14574,10.63702,-0.05182,1.65807,9.66532,0.22627,0.1448,-1.69788,-13.773,26.231,-36.06,24.119,-9.734,0.307,5.0,44.0632,22.9999,120.21971,42.6,NaN,,21.6,,0 / 0,39811,2021-01-13 15:22:09:613
2.71842,0.07868,8.66827,-0.23884,1.78284,9.64027,0.5751,-0.1329,-2.13196,-17.491,22.293,-37.165,32.347,-10.475,1.419,5.0,44.0632,22.9999,120.21971,42.6,NaN,,21.6,,0 / 0,39909,2021-01-13 15:22:09:711
2.06216,-0.77876,9.88018,-0.35373,2.13175,9.56561,0.2924,-0.70243,-2.87342,-29.986,12.997,-34.602,57.333,-12.555,2.118,5.0,44.0008,22.9999,120.21971,42.6,NaN,,21.6,,0 / 0,40015,2021-01-13 15:22:09:817
0.69936,-0.3716,7.30547,-0.15553,2.36288,9.51646,0.4209,-0.86424,-2.94739,-29.986,12.997,-34.602,57.333,-12.555,2.118,5.0,44.0008,22.9999,120.21971,42.6,NaN,,21.6,,0 / 0,40108,2021-01-13 15:22:09:910
-3.8441,-0.2255,7.74856,-0.06784,2.30928,9.53064,-0.28373,-0.82711,-2.87915,-38.198,-6.508,-29.314,90.057,-13.62,0.408,5.0,44.0008,22.9999,120.21971,42.6,NaN,,21.6,,0 / 0,40207,2021-01-13 15:22:10:009
-2.95792,1.05348,14.27994,0.04979,1.79464,9.64091,-0.85852,-0.66416,-1.82647,-38.428,-9.936,-27.984,97.035,-10.545,-0.296,5.0,53.4562,22.9999,120.21971,42.6,NaN,,21.6,,0 / 0,40308,2021-01-13 15:22:10:110
-0.96043,0.2128,16.27025,0.67865,0.59277,9.76517,-0.52569,-0.37215,-0.5062,-42.484,-12.062,-27.569,104.204,-3.465,-3.975,5.0,53.4562,22.9999,120.21971,42.6,NaN,,21.6,,0 / 0,40408,2021-01-13 15:22:10:210
0.8263,1.41753,10.0622,0.74189,0.51496,9.76498,0.83408,-0.16599,-0.08817,-42.484,-12.062,-27.569,104.204,-3.465,-3.975,5.0,53.4562,22.9999,120.21971,42.6,NaN,,21.6,,0 / 0,40508,2021-01-13 15:22:10:310
0.89097,2.32287,6.4624,0.82257,1.84264,9.59679,0.94418,0.02878,-0.1503,-41.745,-16.006,-22.192,105.083,-6.644,-4.921,5.0,58.0056,22.9999,120.21971,42.6,NaN,,21.6,,0 / 0,40608,2021-01-13 15:22:10:410
-0.32573,2.49052,5.81333,0.60202,2.68045,9.41399,0.50032,0.25593,-0.34619,-41.571,-19.44,-21.23,106.236,-15.862,-3.659,5.0,58.0056,22.9999,120.21971,42.6,NaN,,21.6,,0 / 0,40708,2021-01-13 15:22:10:510
-0.01677,2.43304,4.93673,0.44667,3.03085,9.31584,-0.3484,0.11873,-0.08469,-39.636,-20.357,-21.124,107.051,-18.003,-2.745,5.0,58.0056,22.9999,120.21971,42.6,NaN,,21.6,,0 / 0,40808,2021-01-13 15:22:10:610
0.57482,2.4043,5.51155,0.36275,2.63912,9.43789,-0.67591,0.06485,0.16605,-40.324,-19.366,-23.415,106.665,-15.612,-2.201,5.0,54.6005,22.9999,120.21971,42.6,NaN,,21.6,,0 / 0,40909,2021-01-13 15:22:10:711
0.77601,1.15886,15.47509,0.38162,1.11845,9.73519,-0.9887,-0.39675,-0.15036,-42.023,-15.869,-26.963,107.158,-6.549,-2.245,5.0,54.6005,22.9999,120.21971,42.6,NaN,,21.6,,0 / 0,41008,2021-01-13 15:22:10:810
1.32448,-0.8554,20.09759,0.67831,0.53736,9.76839,-1.11264,-0.21027,-0.15015,-42.527,-13.891,-27.516,106.697,-3.141,-3.972,5.0,54.6005,22.9999,120.21971,42.6,NaN,,21.6,,0 / 0,41108,2021-01-13 15:22:10:910
0.97001,0.90977,8.34014,0.65196,0.81953,9.75058,1.47488,-0.2219,-0.03621,-42.162,-17.912,-25.04,111.213,-4.794,-3.825,5.0,54.6005,22.9999,120.21971,42.6,NaN,,21.6,,0 / 0,41208,2021-01-13 15:22:11:010
0.85983,1.18042,6.8049,0.7379,2.1068,9.5492,0.77022,0.15108,-0.19016,-42.988,-19.923,-21.399,109.147,-12.406,-4.419,5.0,45.594,22.9999,120.21971,42.6,NaN,,21.6,,0 / 0,41308,2021-01-13 15:22:11:110
0.41435,2.23425,2.51052,0.27003,2.50497,9.47748,0.77417,0.19824,-0.35558,-40.401,-24.902,-20.918,115.181,-14.799,-1.632,5.0,45.594,22.9999,120.21971,42.6,NaN,,21.6,,0 / 0,41408,2021-01-13 15:22:11:210
0.11496,1.89654,7.25517,-0.11963,3.06175,9.31567,-0.39593,0.20835,-0.25465,-40.161,-27.388,-20.767,115.556,-18.193,0.736,5.0,45.594,22.9999,120.21971,42.6,NaN,,21.6,,0 / 0,41508,2021-01-13 15:22:11:310
-0.67062,3.26653,12.5962,0.05624,2.30946,9.53067,-1.04485,-0.04076,0.41176,-40.075,-23.368,-23.224,112.951,-13.621,-0.338,5.0,45.3784,22.9999,120.21971,42.6,NaN,,21.6,,0 / 0,41608,2021-01-13 15:22:11:410
-0.03832,0.86906,18.1432,0.11207,1.73228,9.65179,-1.29708,-0.22746,0.39563,-42.064,-21.74,-23.042,112.758,-10.174,-0.665,5.0,45.3784,22.9999,120.21971,42.6,NaN,,21.6,,0 / 0,41708,2021-01-13 15:22:11:510
-0.23232,1.17323,10.649,0.36892,0.71837,9.77334,0.99852,-0.10998,0.47943,-43.463,-19.623,-25.772,113.117,-4.201,-2.162,5.0,45.3784,22.9999,120.21971,42.6,NaN,,21.6,,0 / 0,41808,2021-01-13 15:22:11:610
0.27783,0.78044,11.01305,0.48738,1.68209,9.64901,0.70144,-0.05997,0.35493,-44.237,-19.128,-23.651,108.413,-9.877,-2.892,5.0,44.2896,22.9999,120.21971,42.6,NaN,,21.6,,0 / 0,41908,2021-01-13 15:22:11:710
0.17245,2.15761,4.51041,0.616,2.22097,9.53196,1.17959,0.35739,0.18402,-46.154,-21.511,-19.599,109.998,-13.09,-3.698,5.0,44.2896,22.9999,120.21971,42.6,NaN,,21.6,,0 / 0,42008,2021-01-13 15:22:11:810
-0.73769,2.73243,5.50676,0.23523,3.3422,9.21655,0.40911,0.5094,0.09206,-44.789,-21.861,-19.446,107.251,-19.926,-1.462,5.0,44.2896,22.9999,120.21971,42.6,NaN,,21.6,,0 / 0,42108,2021-01-13 15:22:11:910
-0.85744,2.41149,8.56049,0.05214,3.42964,9.18723,-0.86003,-0.19976,-0.30039,-42.932,-21.082,-20.048,106.366,-20.471,-0.325,5.0,43.5955,22.9999,120.21971,42.6,NaN,,21.6,,0 / 0,42207,2021-01-13 15:22:12:009
-0.74248,1.30496,13.5207,0.05918,2.77576,9.40543,-1.28757,0.02129,-0.1664,-43.161,-21.524,-21.556,109.046,-16.442,-0.361,5.0,43.5955,22.9999,120.21971,42.6,NaN,,21.6,,0 / 0,42308,2021-01-13 15:22:12:110
0.20598,0.45471,18.0474,0.22217,1.39187,9.70483,-0.88584,-0.20005,-0.11673,-45.449,-17.332,-24.102,106.634,-8.16,-1.311,5.0,43.5955,22.9999,120.21971,42.6,NaN,,21.6,,0 / 0,42408,2021-01-13 15:22:12:210
0.89576,0.89301,11.80822,0.40468,1.19191,9.72553,0.61411,-0.0878,-0.10084,-46.096,-19.233,-23.227,109.383,-6.981,-2.383,5.0,43.5955,22.9999,120.21971,42.6,NaN,,21.6,,0 / 0,42508,2021-01-13 15:22:12:310
0.00718,2.10492,5.26007,0.26711,1.76078,9.64358,1.04784,0.21731,-0.20281,-43.726,-23.873,-20.518,114.328,-10.344,-1.587,5.0,45.5203,22.9999,120.21971,42.6,NaN,,21.6,,0 / 0,42608,2021-01-13 15:22:12:410
-0.03832,2.82105,3.94996,-0.05472,2.9754,9.34422,0.75303,0.33129,-0.28357,-40.844,-25.425,-19.665,113.44,-17.662,0.336,5.0,45.5203,22.9999,120.21971,42.6,NaN,,21.6,,0 / 0,42708,2021-01-13 15:22:12:510
-1.56638,2.98631,7.14021,-0.45147,2.95539,9.33982,-0.14258,0.31979,-0.19081,-40.903,-25.898,-21.361,114.434,-17.54,2.767,5.0,45.5203,22.9999,120.21971,42.6,NaN,,21.6,,0 / 0,42808,2021-01-13 15:22:12:610
-0.52452,2.90727,11.46812,-0.33401,2.88514,9.36669,-0.72823,-0.2599,0.50104,-43.685,-23.424,-21.818,109.643,-17.11,2.042,5.0,46.0393,22.9999,120.21971,42.6,NaN,,21.6,,0 / 0,42908,2021-01-13 15:22:12:710
0.60595,0.15053,16.91213,0.09146,1.56803,9.68005,-1.31275,-0.25606,0.22807,-44.015,-17.877,-23.606,107.576,-9.201,-0.541,5.0,46.0393,22.9999,120.21971,42.6,NaN,,21.6,,0 / 0,43008,2021-01-13 15:22:12:810
-0.26825,1.0894,12.64889,0.48752,0.89146,9.75387,0.06639,-0.06669,0.26189,-45.968,-18.732,-23.972,110.28,-5.216,-2.861,5.0,46.0393,22.9999,120.21971,42.6,NaN,,21.6,,0 / 0,43108,2021-01-13 15:22:12:910
1.07779,0.98641,8.0695,0.51369,1.16976,9.72307,0.54818,-0.04351,0.09225,-45.862,-19.612,-21.008,110.842,-6.851,-3.024,5.0,47.1623,22.9999,120.21971,42.6,NaN,,21.6,,0 / 0,43208,2021-01-13 15:22:13:010
-0.04551,1.90852,5.99057,0.58426,2.20843,9.53687,1.05487,-0.02805,-0.15836,-44.632,-21.259,-19.469,109.588,-13.014,-3.506,5.0,47.1623,22.9999,120.21971,42.6,NaN,,21.6,,0 / 0,43308,2021-01-13 15:22:13:110
0.01916,3.11564,4.4649,0.21416,3.22696,9.25804,0.87458,0.27255,-0.1575,-42.944,-23.909,-18.388,111.085,-19.212,-1.325,5.0,47.1623,22.9999,120.21971,42.6,NaN,,21.6,,0 / 0,43408,2021-01-13 15:22:13:210
0.08143,1.97079,6.65401,0.12314,3.47428,9.16977,-0.12772,-0.2659,-0.28192,-43.236,-24.588,-17.377,111.853,-20.749,-0.769,5.0,46.507,22.9999,120.21971,42.6,NaN,,21.6,,0 / 0,43509,2021-01-13 15:22:13:311
0.26585,1.0415,13.09438,0.02767,2.56502,9.46522,-1.21193,0.21686,-0.05648,-42.748,-21.655,-21.415,110.094,-15.163,-0.167,5.0,46.507,22.9999,120.21971,42.6,NaN,,21.6,,0 / 0,43608,2021-01-13 15:22:13:410
0.88139,0.72056,16.10499,0.19799,1.28935,9.71951,-1.04285,-0.08742,0.00724,-44.042,-21.057,-23.459,112.104,-7.555,-1.167,5.0,46.507,22.9999,120.21971,42.6,NaN,,21.6,,0 / 0,43708,2021-01-13 15:22:13:510
0.51734,1.13012,10.68253,0.27509,1.00787,9.75084,-0.28596,-0.15541,-0.17767,-43.788,-21.492,-21.766,113.106,-5.899,-1.616,5.0,46.507,22.9999,120.21971,42.6,NaN,,21.6,,0 / 0,43809,2021-01-13 15:22:13:611
-0.23472,2.18635,6.83124,0.11562,1.92874,9.61442,1.28485,0.1743,-0.15794,-40.031,-22.995,-21.791,114.527,-11.343,-0.689,5.0,46.6129,22.9999,120.21971,42.6,NaN,,21.6,,0 / 0,43909,2021-01-13 15:22:13:711
0.3425,2.73003,4.77866,-0.27889,2.93136,9.35413,0.91373,0.3642,-0.06926,-39.133,-26.869,-20.871,116.605,-17.392,1.708,5.0,46.6129,22.9999,120.21971,42.6,NaN,,21.6,,0 / 0,44008,2021-01-13 15:22:13:810
-0.54608,3.25216,5.68639,-0.58615,2.83401,9.36991,-0.27519,0.41772,-0.02034,-37.339,-26.872,-22.881,117.395,-16.797,3.58,5.0,46.6129,22.9999,120.21971,42.6,NaN,,21.6,,0 / 0,44108,2021-01-13 15:22:13:910
-0.74727,2.51448,11.0394,-0.64172,2.65526,9.4185,-0.17308,-0.09719,0.24171,-39.482,-23.44,-24.283,111.995,-15.71,3.898,5.0,45.7316,22.9999,120.21971,42.6,NaN,,21.6,,0 / 0,44208,2021-01-13 15:22:14:010
0.25627,0.18646,13.19258,-0.30266,1.60547,9.6696,-0.98196,-0.54336,0.29986,-39.113,-22.181,-24.836,114.13,-9.422,1.793,5.0,45.7316,22.9999,120.21971,42.6,NaN,,21.6,,0 / 0,44308,2021-01-13 15:22:14:110
-0.41435,1.02234,13.41292,0.01344,1.1006,9.74469,-0.77282,-0.51726,0.33102,-43.058,-17.721,-25.55,109.2,-6.444,-0.079,5.0,45.7316,22.9999,120.21971,42.6,NaN,,21.6,,0 / 0,44408,2021-01-13 15:22:14:210
0.21795,1.16844,9.65504,0.19691,1.16359,9.73538,0.49252,0.10406,0.09656,-41.36,-18.718,-23.75,111.456,-6.814,-1.159,5.0,44.9546,22.9999,120.21971,42.6,NaN,,21.6,,0 / 0,44508,2021-01-13 15:22:14:310
0.05509,2.07618,5.57143,0.13337,2.35679,9.51831,1.12984,0.00455,0.02885,-41.977,-20.599,-21.681,109.737,-13.906,-0.803,5.0,44.9546,22.9999,120.21971,42.6,NaN,,21.6,,0 / 0,44608,2021-01-13 15:22:14:410
0.21077,3.17312,3.87332,-0.01446,2.97705,9.34384,0.63024,0.31118,-0.03664,-41.104,-22.775,-20.152,111.136,-17.672,0.089,5.0,44.9546,22.9999,120.21971,42.6,NaN,,21.6,,0 / 0,44708,2021-01-13 15:22:14:510
-0.41674,2.66297,7.58569,-0.15631,3.21049,9.26492,-0.06969,-0.0903,-0.16358,-38.363,-24.972,-20.371,114.273,-19.11,0.967,5.0,45.156,22.9999,120.21971,42.6,NaN,,21.6,,0 / 0,44808,2021-01-13 15:22:14:610
-0.65625,1.91571,10.82863,-0.11605,2.39156,9.50986,-0.90967,0.00306,-0.10247,-38.833,-22.932,-21.871,113.48,-14.115,0.699,5.0,45.156,22.9999,120.21971,42.6,NaN,,21.6,,0 / 0,44908,2021-01-13 15:22:14:710
0.40956,0.86187,13.05606,-0.09794,2.0481,9.5899,-0.58766,-0.11876,0.0774,-39.887,-19.712,-24.61,109.713,-12.055,0.585,5.0,45.156,22.9999,120.21971,42.6,NaN,,21.6,,0 / 0,45008,2021-01-13 15:22:14:810
0.74726,0.38046,14.89308,0.09537,1.11651,9.74242,-0.28303,-0.26334,0.02524,-39.85,-19.111,-23.66,112.042,-6.537,-0.561,5.0,45.156,22.9999,120.21971,42.6,NaN,,21.6,,0 / 0,45107,2021-01-13 15:22:14:909
0.52452,1.27382,9.06346,0.15633,1.54318,9.68321,0.32966,0.09661,0.0087,-40.018,-20.909,-20.084,113.791,-9.054,-0.925,5.0,45.1988,22.9999,120.21971,42.6,NaN,,21.6,,0 / 0,45208,2021-01-13 15:22:15:010
-0.51015,2.49052,5.10918,0.16562,2.26002,9.54124,0.97061,0.20387,-0.27967,-36.494,-22.629,-21.758,115.737,-13.324,-0.994,5.0,45.1988,22.9999,120.21971,42.6,NaN,,21.6,,0 / 0,45308,2021-01-13 15:22:15:110
-0.46704,2.82584,5.80615,-0.23922,3.04597,9.31854,0.54263,0.30282,-0.23277,-37.233,-24.615,-22.796,114.236,-18.096,1.471,5.0,45.1988,22.9999,120.21971,42.6,NaN,,21.6,,0 / 0,45408,2021-01-13 15:22:15:210
-0.72092,2.71327,9.25985,-0.32046,2.99778,9.33172,-0.20679,-0.23049,-0.11513,-35.855,-24.563,-21.874,115.422,-17.8,1.967,5.0,45.4701,22.9999,120.21971,42.6,NaN,,21.6,,0 / 0,45508,2021-01-13 15:22:15:310
-0.29939,2.63662,11.98066,-0.25886,2.51411,9.47537,-0.94982,-0.05027,0.19237,-38.901,-21.644,-23.862,111.215,-14.855,1.565,5.0,45.4701,22.9999,120.21971,42.6,NaN,,21.6,,0 / 0,45608,2021-01-13 15:22:15:410
-0.22993,1.26664,14.37335,0.01864,1.50648,9.69023,-0.60518,-0.29966,0.21976,-38.917,-19.683,-24.862,112.219,-8.837,-0.11,5.0,45.4701,22.9999,120.21971,42.6,NaN,,21.6,,0 / 0,45708,2021-01-13 15:22:15:510
-0.03114,1.0415,11.54476,0.34281,1.64938,9.66087,0.23105,-0.27706,0.20458,-39.062,-19.195,-23.432,110.977,-9.683,-2.032,5.0,46.1343,22.9999,120.21971,42.6,NaN,,21.6,,0 / 0,45808,2021-01-13 15:22:15:610
0.08143,1.58518,6.52228,0.32446,1.94651,9.60605,0.74694,0.07643,0.03228,-38.112,-19.964,-21.367,112.163,-11.449,-1.934,5.0,46.1343,22.9999,120.21971,42.6,NaN,,21.6,,0 / 0,45909,2021-01-13 15:22:15:711
-0.36166,2.42586,5.17624,0.09915,2.70544,9.42556,0.60561,0.29448,0.01564,-38.313,-22.684,-22.111,112.868,-16.014,-0.603,5.0,46.1343,22.9999,120.21971,42.6,NaN,,21.6,,0 / 0,46008,2021-01-13 15:22:15:810
-0.42632,3.00068,6.36181,-0.23846,3.03988,9.32055,0.05735,0.17787,-0.02425,-36.278,-23.251,-20.885,113.187,-18.058,1.466,5.0,45.8049,22.9999,120.21971,42.6,NaN,,21.6,,0 / 0,46108,2021-01-13 15:22:15:910
-0.60117,2.39472,10.98671,-0.22771,2.84391,9.38247,-0.51461,-0.11852,-0.17467,-37.268,-22.122,-24.139,110.913,-16.858,1.39,5.0,45.8049,22.9999,120.21971,42.6,NaN,,21.6,,0 / 0,46208,2021-01-13 15:22:16:010
1.14485,1.26424,13.84164,0.01937,1.93659,9.61351,-0.8404,-0.24263,0.00334,-37.282,-21.118,-25.089,112.935,-11.389,-0.115,5.0,45.8049,22.9999,120.21971,42.6,NaN,,21.6,,0 / 0,46308,2021-01-13 15:22:16:110
0.81193,0.68703,14.03804,0.08765,1.27292,9.72329,-0.6068,-0.02934,0.02402,-36.2,-20.097,-24.538,114.819,-7.458,-0.516,5.0,45.8049,22.9999,120.21971,42.6,NaN,,21.6,,0 / 0,46407,2021-01-13 15:22:16:209
0.55805,1.25227,7.57851,0.16521,1.61433,9.67145,0.7632,0.0822,-0.21385,-36.486,-20.399,-21.386,114.406,-9.475,-0.979,5.0,45.6225,22.9999,120.21971,42.6,NaN,,21.6,,0 / 0,46507,2021-01-13 15:22:16:309
-0.10538,2.10971,5.89477,0.01396,2.50159,9.48221,0.80926,0.05229,-0.33076,-35.805,-25.078,-22.16,117.279,-14.779,-0.084,5.0,45.6225,22.9999,120.21971,42.6,NaN,,21.6,,0 / 0,46607,2021-01-13 15:22:16:409
-0.28981,2.78272,5.84926,-0.3104,2.89989,9.36294,0.1921,0.06608,-0.27784,-34.256,-25.262,-20.534,117.444,-17.2,1.899,5.0,45.6225,22.9999,120.21971,42.6,NaN,,21.6,,0 / 0,46708,2021-01-13 15:22:16:510
0.00479,2.22707,9.41554,-0.43739,2.71511,9.41314,-0.43971,0.08517,-0.17863,-33.093,-25.307,-23.254,117.988,-16.073,2.66,5.0,46.5745,22.9999,120.21971,42.6,NaN,,21.6,,0 / 0,46808,2021-01-13 15:22:16:610
-0.9245,3.19707,10.77834,-0.15698,1.90179,9.6192,-0.63191,-0.0289,0.30261,-34.217,-23.627,-25.149,118.66,-11.182,0.935,5.0,46.5745,22.9999,120.21971,42.6,NaN,,21.6,,0 / 0,46909,2021-01-13 15:22:16:711
-0.07904,-0.38836,17.26421,-0.01654,1.01977,9.75347,-0.70735,0.00567,0.30982,-36.073,-18.741,-25.331,114.339,-5.969,0.097,5.0,46.5745,22.9999,120.21971,42.6,NaN,,21.6,,0 / 0,47008,2021-01-13 15:22:16:810
0.3904,1.00318,10.0143,0.15453,0.77969,9.77438,0.56901,-0.22531,0.32408,-36.325,-19.616,-25.722,116.607,-4.56,-0.906,5.0,46.6276,22.9999,120.21971,42.6,NaN,,21.6,,0 / 0,47108,2021-01-13 15:22:16:910
0.18682,-0.08179,10.83582,0.51993,1.48407,9.67975,0.59064,-0.34422,0.07209,-39.956,-19.282,-22.296,111.325,-8.704,-3.075,5.0,46.6276,22.9999,120.21971,42.6,NaN,,21.6,,0 / 0,47208,2021-01-13 15:22:17:010
-0.2443,1.75524,5.28642,0.43986,2.08324,9.57272,0.77604,0.22523,-0.03252,-37.358,-20.773,-20.886,113.569,-12.265,-2.631,5.0,46.6276,22.9999,120.21971,42.6,NaN,,21.6,,0 / 0,47308,2021-01-13 15:22:17:110
-0.41674,2.85218,4.94631,0.12199,2.54711,9.46931,0.70344,0.53876,-0.05472,-35.182,-23.114,-21.634,115.261,-15.054,-0.738,5.0,46.5659,22.9999,120.21971,42.6,NaN,,21.6,,0 / 0,47408,2021-01-13 15:22:17:210
-0.42153,2.37077,8.32817,-0.12352,2.49214,9.4839,-0.53862,-0.42293,-0.16649,-37.538,-22.217,-23.623,111.777,-14.722,0.746,5.0,46.5659,22.9999,120.21971,42.6,NaN,,21.6,,0 / 0,47508,2021-01-13 15:22:17:310
-0.00719,1.24508,10.97713,0.19288,1.62012,9.66997,-0.72884,-0.16292,-0.05113,-37.009,-18.709,-25.632,111.439,-9.509,-1.143,5.0,46.5659,22.9999,120.21971,42.6,NaN,,21.6,,0 / 0,47608,2021-01-13 15:22:17:410
0.65865,-1.71524,18.19111,0.30501,0.84436,9.76547,-1.49102,-0.15581,-0.1115,-37.009,-18.709,-25.632,111.439,-9.509,-1.143,5.0,46.5659,22.9999,120.21971,42.6,NaN,,21.6,,0 / 0,47708,2021-01-13 15:22:17:510
1.51369,-0.21592,11.56153,0.41064,-0.06859,9.79781,-0.20332,-0.03958,-0.17754,-37.609,-18.694,-26.705,117.529,0.401,-2.4,5.0,47.2448,22.9999,120.21971,42.6,NaN,,21.6,,0 / 0,47808,2021-01-13 15:22:17:610
0.57721,-0.00275,9.77959,0.28514,0.91454,9.75975,0.83077,0.24113,-0.44888,-36.276,-20.068,-26.891,116.173,-5.351,-1.673,5.0,47.2448,22.9999,120.21971,42.6,NaN,,21.6,,0 / 0,47908,2021-01-13 15:22:17:710
0.11975,2.02827,4.90081,0.21649,1.54443,9.68185,1.26153,0.02892,-0.55563,-34.777,-26.411,-22.345,122.63,-9.061,-1.281,5.0,47.2448,22.9999,120.21971,42.6,NaN,,21.6,,0 / 0,48008,2021-01-13 15:22:17:810
-0.83588,3.20186,6.87196,-0.26924,2.43792,9.49497,-0.02273,0.3643,-0.30496,-32.417,-27.437,-24.166,122.001,-14.395,1.624,5.0,47.3307,22.9999,120.21971,42.6,NaN,,21.6,,0 / 0,48108,2021-01-13 15:22:17:910
0.23472,3.88925,6.66119,-0.37548,2.60062,9.44808,0.17997,0.04099,0.2355,-33.909,-26.828,-24.049,119.836,-15.378,2.276,5.0,47.3307,22.9999,120.21971,42.6,NaN,,21.6,,0 / 0,48208,2021-01-13 15:22:18:010
-0.18682,1.90133,8.35691,-0.37585,2.63522,9.43847,-0.08987,0.15693,0.01478,-34.525,-26.172,-23.607,117.839,-15.588,2.28,5.0,47.3307,22.9999,120.21971,42.6,NaN,,21.6,,0 / 0,48307,2021-01-13 15:22:18:109
0.04311,0.52416,12.52914,-0.3844,2.10025,9.57139,-0.82916,-0.07733,0.23895,-36.166,-22.154,-26.002,113.683,-12.367,2.3,5.0,46.1271,22.9999,120.21971,42.6,NaN,,21.6,,0 / 0,48408,2021-01-13 15:22:18:210
-0.93169,0.68703,12.60578,0.28865,1.2632,9.72067,-0.25041,-0.47407,0.45204,-36.166,-22.154,-26.002,113.683,-12.367,2.3,5.0,46.1271,22.9999,120.21971,42.6,NaN,,21.6,,0 / 0,48508,2021-01-13 15:22:18:310
-0.36884,0.42597,10.95078,0.38876,1.34473,9.70623,0.26078,-0.13541,0.45128,-41.038,-20.677,-23.687,113.371,-7.881,-2.294,5.0,46.1271,22.9999,120.21971,42.6,NaN,,21.6,,0 / 0,48608,2021-01-13 15:22:18:410
0.21316,1.54207,6.68514,0.44052,1.74465,9.64015,0.51828,0.17171,0.28167,-41.877,-19.263,-23.492,109.229,-10.248,-2.616,5.0,45.5635,22.9999,120.21971,42.6,NaN,,21.6,,0 / 0,48709,2021-01-13 15:22:18:511
0.3401,1.66422,6.76418,0.35463,2.21611,9.54639,0.42346,0.05103,0.19273,-41.103,-19.446,-22.977,107.917,-13.061,-2.127,5.0,45.5635,22.9999,120.21971,42.6,NaN,,21.6,,0 / 0,48808,2021-01-13 15:22:18:610
0.60595,1.06785,10.7472,0.28163,2.18219,9.55663,-0.53847,0.07413,-0.11706,-40.826,-20.031,-24.893,108.76,-12.857,-1.688,5.0,45.5635,22.9999,120.21971,42.6,NaN,,21.6,,0 / 0,48908,2021-01-13 15:22:18:710
-0.11736,2.10013,11.53279,0.03785,1.47111,9.69561,-0.60023,0.27858,-0.19295,-39.758,-17.187,-25.708,107.896,-8.628,-0.224,5.0,45.5635,22.9999,120.21971,42.6,NaN,,21.6,,0 / 0,49011,2021-01-13 15:22:18:813
-0.67781,0.09544,10.53883,0.05637,1.10133,9.74445,-0.33071,0.02601,-0.29423,-41.689,-17.421,-26.145,108.43,-6.448,-0.331,5.0,46.7469,22.9999,120.21971,42.6,NaN,,21.6,,0 / 0,49108,2021-01-13 15:22:18:910
-0.13412,0.49782,9.0898,0.01002,1.3449,9.71399,0.5344,-0.01879,-0.25899,-39.57,-20.104,-24.406,112.446,-7.882,-0.059,5.0,46.7469,22.9999,120.21971,42.6,NaN,,21.6,,0 / 0,49208,2021-01-13 15:22:19:010
-0.52452,0.48345,8.93412,0.02296,1.49236,9.69241,0.00292,0.14402,-0.27768,-39.363,-22.756,-24.782,115.906,-8.753,-0.136,5.0,46.7469,22.9999,120.21971,42.6,NaN,,21.6,,0 / 0,49308,2021-01-13 15:22:19:110
-0.05988,0.75888,9.99754,-0.17793,1.40685,9.70358,-0.07105,0.09507,-0.21707,-39.073,-22.054,-24.759,114.872,-8.248,1.05,5.0,47.0808,22.9999,120.21971,42.6,NaN,,21.6,,0 / 0,49408,2021-01-13 15:22:19:210
0.00239,1.30496,9.93048,-0.15776,1.41196,9.70319,0.0146,0.00839,0.12366,-39.3,-21.302,-25.974,113.488,-8.278,0.931,5.0,47.0808,22.9999,120.21971,42.6,NaN,,21.6,,0 / 0,49508,2021-01-13 15:22:19:310
-0.33531,1.17563,11.33399,-0.1634,1.44257,9.69859,0.05628,0.03973,0.14196,-38.3,-19.272,-26.326,111.402,-8.459,0.965,5.0,47.0808,22.9999,120.21971,42.6,NaN,,21.6,,0 / 0,49608,2021-01-13 15:22:19:410