ACCELEROMETER X (m/s²),ACCELEROMETER Y (m/s²),ACCELEROMETER Z (m/s²),GRAVITY X (m/s²),GRAVITY Y (m/s²),GRAVITY Z (m/s²),GYROSCOPE X (rad/s),GYROSCOPE Y (rad/s),GYROSCOPE Z (rad/s),MAGNETIC FIELD X (μT),MAGNETIC FIELD Y (μT),MAGNETIC FIELD Z (μT),ORIENTATION Z (azimuth °),ORIENTATION X (pitch °),ORIENTATION Y (roll °),PROXIMITY (m),SOUND LEVEL (dB),LOCATION Latitude : ,LOCATION Longitude : ,LOCATION Altitude ( m),LOCATION Altitude-google ( m),LOCATION Speed ( m/s),LOCATION Accuracy ( m),LOCATION ORIENTATION (°),Satellites in range,Time since start in ms ,YYYY-MO-DD HH-MI-SS_SSS
0.194,1.92289,8.28745,-0.24482,0.96085,9.75639,0.20645,0.01875,-0.23578,-48.894,5.505,9.781,84.102,-4.852,1.326,5.0,40.4136,22.9999,120.21971,42.6,NaN,,21.6,,0 / 0,9,2021-01-13 15:18:16:054
-0.37124,1.91092,7.72461,-0.20862,1.16569,9.73489,-0.06208,-0.10861,-0.2611,-48.071,4.111,9.77,86.752,-6.438,1.555,5.0,40.4136,22.9999,120.21971,42.6,NaN,,21.6,,0 / 0,110,2021-01-13 15:18:16:155
-0.44788,1.44627,9.47541,-0.09885,0.89302,9.76541,-0.3249,-0.13015,-0.11727,-48.449,3.674,10.308,86.685,-6.407,0.954,5.0,40.4136,22.9999,120.21971,42.6,NaN,,21.6,,0 / 0,209,2021-01-13 15:18:16:254
-0.17484,1.06545,11.24058,-0.10564,0.64636,9.78476,-0.42868,0.11768,0.35919,-49.397,5.885,10.955,83.896,-3.779,0.619,5.0,39.4408,22.9999,120.21971,42.6,NaN,,21.6,,0 / 0,310,2021-01-13 15:18:16:355
0.36884,-0.48656,13.31472,-0.11475,0.15136,9.80481,-0.46469,-0.09542,0.43285,-51.068,7.862,9.597,81.561,-2.388,0.991,5.0,39.4408,22.9999,120.21971,42.6,NaN,,21.6,,0 / 0,410,2021-01-13 15:18:16:455
-0.37842,-0.18718,10.75917,0.03948,0.23348,9.80379,0.67641,-0.09826,0.26915,-50.25,12.292,8.885,77.801,0.156,0.035,5.0,39.4408,22.9999,120.21971,42.6,NaN,,21.6,,0 / 0,510,2021-01-13 15:18:16:555
-0.28501,0.25112,8.57486,0.1066,0.7971,9.77362,1.02888,-0.17257,0.04846,-50.631,13.316,11.045,75.987,-1.364,-0.231,5.0,40.6206,22.9999,120.21971,42.6,NaN,,21.6,,0 / 0,609,2021-01-13 15:18:16:654
0.02156,1.01995,6.8025,0.22241,1.34087,9.712,-0.01606,0.30873,0.03329,-49.75,13.143,10.951,76.962,-7.428,-1.539,5.0,40.6206,22.9999,120.21971,42.6,NaN,,21.6,,0 / 0,709,2021-01-13 15:18:16:754
-0.85744,2.05702,6.05284,-0.00381,1.36939,9.71057,0.05916,0.13699,-0.01599,-48.598,15.117,7.874,74.287,-7.835,-0.204,5.0,40.6206,22.9999,120.21971,42.6,NaN,,21.6,,0 / 0,809,2021-01-13 15:18:16:854
-0.28022,1.07982,11.25496,0.01968,1.12505,9.74188,-1.01593,0.10032,0.0532,-48.925,14.678,7.544,74.342,-8.027,0.022,5.0,39.9079,22.9999,120.21971,42.6,NaN,,21.6,,0 / 0,909,2021-01-13 15:18:16:954
-0.52452,1.0415,12.4022,-0.02672,0.17055,9.80513,-0.59315,-0.05022,-0.00681,-48.099,16.723,7.335,70.936,-3.16,0.264,5.0,39.9079,22.9999,120.21971,42.6,NaN,,21.6,,0 / 0,1010,2021-01-13 15:18:17:055
0.39758,-1.70805,13.71949,0.05852,0.15166,9.8053,-0.13101,-0.13451,-0.02908,-48.295,16.662,5.875,70.596,-0.844,-0.115,5.0,39.9079,22.9999,120.21971,42.6,NaN,,21.6,,0 / 0,1110,2021-01-13 15:18:17:155
0.64907,-1.27454,10.46458,0.18144,-0.00128,9.80497,0.08524,-0.06634,-0.00462,-45.247,17.98,7.994,68.353,-0.886,-0.342,5.0,39.9079,22.9999,120.21971,42.6,NaN,,21.6,,0 / 0,1209,2021-01-13 15:18:17:254
0.57482,0.49782,7.70066,0.20944,1.1923,9.73165,0.68854,-0.00745,-0.19822,-45.255,18.802,6.244,67.449,-2.757,-0.735,5.0,40.9995,22.9999,120.21971,42.6,NaN,,21.6,,0 / 0,1309,2021-01-13 15:18:17:354
-0.3425,1.55884,7.15937,0.03986,1.41809,9.7035,0.06291,0.15845,-0.32965,-42.661,16.547,3.516,69.201,-8.183,-0.918,5.0,40.9995,22.9999,120.21971,42.6,NaN,,21.6,,0 / 0,1409,2021-01-13 15:18:17:454
1.07539,1.93247,6.62527,0.02925,1.45058,9.69873,-0.1523,0.06624,-0.01581,-42.147,16.585,3.021,68.661,-8.314,-0.235,5.0,40.9995,22.9999,120.21971,42.6,NaN,,21.6,,0 / 0,1509,2021-01-13 15:18:17:554
-0.56524,1.90373,9.76522,-0.40383,1.12413,9.73364,-0.44491,0.57173,-0.13743,-41.697,13.968,0.619,71.91,-8.066,0.017,5.0,39.9928,22.9999,120.21971,42.6,NaN,,21.6,,0 / 0,1609,2021-01-13 15:18:17:654
-0.06227,1.14928,13.18539,-0.18619,0.71017,9.77913,-0.66101,0.15559,0.35592,-40.279,15.878,0.827,68.516,-5.833,1.173,5.0,39.9928,22.9999,120.21971,42.6,NaN,,21.6,,0 / 0,1709,2021-01-13 15:18:17:754
-0.74727,-1.22664,14.75656,-0.19749,0.40295,9.79638,-0.41214,-0.3142,0.15067,-39.468,17.261,0.745,66.645,-4.153,1.091,5.0,39.9928,22.9999,120.21971,42.6,NaN,,21.6,,0 / 0,1809,2021-01-13 15:18:17:854
0.0958,-0.97995,10.76396,0.36692,0.65921,9.77759,0.34103,-0.22121,0.05974,-38.789,16.641,2.296,66.524,-1.798,-1.021,5.0,40.8271,22.9999,120.21971,42.6,NaN,,21.6,,0 / 0,1908,2021-01-13 15:18:17:953
0.13173,-0.25424,8.0216,0.37963,0.93329,9.75476,0.26393,0.04134,0.00177,-35.777,15.823,0.439,65.916,-4.252,-2.568,5.0,40.8271,22.9999,120.21971,42.6,NaN,,21.6,,0 / 0,2009,2021-01-13 15:18:18:054
-0.07185,1.68817,6.29474,0.32169,1.47531,9.6897,0.59537,0.21055,0.01904,-35.162,14.064,0.182,68.091,-5.461,-2.229,5.0,40.8271,22.9999,120.21971,42.6,NaN,,21.6,,0 / 0,2109,2021-01-13 15:18:18:154
-0.14131,2.0666,7.10668,0.06443,1.80203,9.63945,-0.03882,0.20482,-0.08295,-35.759,13.313,0.044,70.266,-10.687,-1.176,5.0,40.0939,22.9999,120.21971,42.6,NaN,,21.6,,0 / 0,2209,2021-01-13 15:18:18:254
-0.44788,0.70619,12.44531,0.11465,1.53741,9.68471,-0.61043,-0.10621,-0.21017,-36.341,13.668,-0.905,68.8,-10.589,-0.15,5.0,40.0939,22.9999,120.21971,42.6,NaN,,21.6,,0 / 0,2308,2021-01-13 15:18:18:353
0.80714,-0.65182,11.25735,-0.0273,1.18222,9.73509,-0.42646,0.1581,-0.12532,-34.161,12.873,-3.258,68.508,-9.02,-0.678,5.0,40.0939,22.9999,120.21971,42.6,NaN,,21.6,,0 / 0,2409,2021-01-13 15:18:18:454
1.39873,0.10502,10.77354,0.01323,0.36593,9.79981,-0.09265,0.07203,0.04767,-35.017,13.319,-2.24,69.408,-5.076,-0.358,5.0,40.0939,22.9999,120.21971,42.6,NaN,,21.6,,0 / 0,2509,2021-01-13 15:18:18:554
0.42153,-0.06742,10.85258,0.0689,0.46294,9.79548,0.09792,-0.04675,-0.2683,-34.806,10.376,-2.137,73.912,-2.448,-0.494,5.0,39.1969,22.9999,120.21971,42.6,NaN,,21.6,,0 / 0,2609,2021-01-13 15:18:18:654
-0.0503,1.384,7.2432,0.00749,0.6899,9.78235,0.74314,0.0168,-0.26154,-33.565,7.982,-2.639,76.521,-2.706,-0.403,5.0,39.1969,22.9999,120.21971,42.6,NaN,,21.6,,0 / 0,2709,2021-01-13 15:18:18:754
-0.07664,2.18635,5.20498,-0.13037,1.53939,9.6842,0.65551,0.2129,-0.05555,-34.672,6.949,-4.77,77.876,-6.54,0.06,5.0,39.1969,22.9999,120.21971,42.6,NaN,,21.6,,0 / 0,2809,2021-01-13 15:18:18:854
1.1185,1.41753,9.56642,-0.27156,1.36801,9.70697,-0.3713,-0.06952,0.23046,-32.891,4.734,-3.734,80.696,-9.152,1.635,5.0,39.0992,22.9999,120.21971,42.6,NaN,,21.6,,0 / 0,2909,2021-01-13 15:18:18:954
0.80235,0.93133,12.14593,-0.14757,1.03187,9.7511,-0.68031,-0.00368,0.14606,-33.865,7.51,-5.857,75.826,-8.019,1.603,5.0,39.0992,22.9999,120.21971,42.6,NaN,,21.6,,0 / 0,3009,2021-01-13 15:18:19:054
0.1964,-0.29974,13.71949,0.11487,0.38502,9.79842,-0.40005,-0.32872,-0.17906,-33.131,7.516,-5.226,75.897,-4.436,1.103,5.0,39.0992,22.9999,120.21971,42.6,NaN,,21.6,,0 / 0,3109,2021-01-13 15:18:19:154
-0.42393,-0.93684,11.72439,0.44394,0.57418,9.77976,0.41625,-0.29762,-0.16312,-32.404,5.74,-4.59,79.072,-1.495,-1.523,5.0,40.3576,22.9999,120.21971,42.6,NaN,,21.6,,0 / 0,3210,2021-01-13 15:18:19:255
0.12933,-0.23508,7.93537,0.41217,0.80604,9.76477,0.85969,0.17814,0.05485,-33.146,3.633,-2.793,82.613,-3.357,-2.599,5.0,40.3576,22.9999,120.21971,42.6,NaN,,21.6,,0 / 0,3309,2021-01-13 15:18:19:354
-0.11017,2.23186,4.8098,0.20807,1.82635,9.63284,0.95197,0.18267,0.10391,-33.793,3.046,-2.725,84.098,-7.478,-1.796,5.0,40.3576,22.9999,120.21971,42.6,NaN,,21.6,,0 / 0,3410,2021-01-13 15:18:19:455
-0.23472,2.33484,8.01681,0.06415,2.02033,9.59607,-0.42857,0.06851,0.08459,-31.1,2.475,-3.602,84.62,-12.749,-0.68,5.0,40.3576,22.9999,120.21971,42.6,NaN,,21.6,,0 / 0,3509,2021-01-13 15:18:19:554
-0.40477,0.99599,12.304,0.15317,1.82135,9.63481,-0.456,-0.37664,-0.13622,-31.612,1.632,-3.289,85.318,-11.889,-0.383,5.0,40.0484,22.9999,120.21971,42.6,NaN,,21.6,,0 / 0,3609,2021-01-13 15:18:19:654
0.58919,0.13377,13.79853,0.25924,0.84354,9.76686,-0.68037,0.10619,0.03502,-32.543,1.701,-5.965,84.813,-8.012,-1.98,5.0,40.0484,22.9999,120.21971,42.6,NaN,,21.6,,0 / 0,3709,2021-01-13 15:18:19:754
0.85983,0.26789,10.12927,0.26769,0.44062,9.79309,-0.23178,-0.05428,-0.04954,-32.286,2.373,-4.927,85.952,-2.506,-1.539,5.0,40.0484,22.9999,120.21971,42.6,NaN,,21.6,,0 / 0,3809,2021-01-13 15:18:19:854
0.40956,0.24154,8.77605,0.26024,1.12623,9.73829,0.54731,0.12464,-0.29947,-32.683,1.691,-6.071,85.978,-2.575,-1.566,5.0,40.4,22.9999,120.21971,42.6,NaN,,21.6,,0 / 0,3909,2021-01-13 15:18:19:954
-0.20358,2.02109,5.92351,0.00226,1.64783,9.66721,0.45396,0.25826,-0.18094,-31.033,-0.963,-3.571,90.604,-8.391,-1.006,5.0,40.4,22.9999,120.21971,42.6,NaN,,21.6,,0 / 0,4009,2021-01-13 15:18:20:054
-0.01916,2.55998,6.03847,-0.18654,2.04429,9.58939,-0.16804,0.26703,0.04241,-31.506,-1.602,-4.618,91.745,-11.849,0.393,5.0,40.4,22.9999,120.21971,42.6,NaN,,21.6,,0 / 0,4110,2021-01-13 15:18:20:155
0.45267,2.04983,8.33056,-0.29836,1.80467,9.63455,-0.57668,0.1023,0.14888,-30.881,-2.291,-5.484,91.915,-12.032,1.114,5.0,38.6254,22.9999,120.21971,42.6,NaN,,21.6,,0 / 0,4209,2021-01-13 15:18:20:254
-0.52692,1.16126,12.77344,-0.0699,0.91074,9.76402,-0.91537,0.00317,0.16673,-30.171,-2.338,-4.173,92.836,-8.618,1.434,5.0,38.6254,22.9999,120.21971,42.6,NaN,,21.6,,0 / 0,4309,2021-01-13 15:18:20:354
0.57721,-0.99192,14.27276,-0.0708,0.14184,9.80537,-0.59292,0.00793,0.29655,-30.115,0.281,-6.542,89.397,-2.755,0.773,5.0,38.6254,22.9999,120.21971,42.6,NaN,,21.6,,0 / 0,4409,2021-01-13 15:18:20:454
-0.54129,-0.95839,11.80343,0.16154,-0.16773,9.80389,0.5882,-0.08416,0.24699,-32.461,-0.568,-5.498,91.665,-0.829,0.414,5.0,40.4659,22.9999,120.21971,42.6,NaN,,21.6,,0 / 0,4509,2021-01-13 15:18:20:554
-0.40716,-0.07221,7.86831,0.35234,0.82523,9.76551,1.13912,-0.23903,0.12507,-31.675,-3.051,-4.203,95.246,-0.86,-1.153,5.0,40.4659,22.9999,120.21971,42.6,NaN,,21.6,,0 / 0,4609,2021-01-13 15:18:20:654
-0.05988,1.18281,6.58934,0.2504,1.58972,9.6737,0.67629,0.06045,0.44617,-31.186,-1.403,-4.633,90.475,-7.147,-1.702,5.0,40.4659,22.9999,120.21971,42.6,NaN,,21.6,,0 / 0,4709,2021-01-13 15:18:20:754
0.57961,2.1624,7.22883,0.20879,1.94213,9.61015,0.34221,0.18601,0.33952,-32.329,-1.239,-3.77,90.091,-11.422,-1.245,5.0,40.4659,22.9999,120.21971,42.6,NaN,,21.6,,0 / 0,4809,2021-01-13 15:18:20:854
0.23472,1.99953,10.29453,0.04293,1.56072,9.68156,-0.46445,0.00822,-0.2211,-32.016,-0.544,-3.921,90.237,-10.97,-0.835,5.0,40.678,22.9999,120.21971,42.6,NaN,,21.6,,0 / 0,4909,2021-01-13 15:18:20:954
0.25148,1.74805,13.07282,0.11406,1.21219,9.73078,-0.27952,-0.15951,-0.4327,-31.48,-2.379,-4.221,92.581,-7.856,-0.528,5.0,40.678,22.9999,120.21971,42.6,NaN,,21.6,,0 / 0,5009,2021-01-13 15:18:21:054
1.18556,-0.73086,15.17091,0.25921,0.97595,9.75452,-0.35745,-0.02546,-0.36085,-30.473,-1.864,-3.967,92.766,-7.1,-0.672,5.0,40.678,22.9999,120.21971,42.6,NaN,,21.6,,0 / 0,5109,2021-01-13 15:18:21:154
0.65146,0.34214,8.64432,0.37443,1.24891,9.71959,0.90661,-0.21778,-0.51861,-31.473,-4.529,-1.786,98.779,-4.159,-1.671,5.0,40.4871,22.9999,120.21971,42.6,NaN,,21.6,,0 / 0,5209,2021-01-13 15:18:21:254
-0.41914,1.80314,6.1223,0.13382,1.97761,9.60425,0.84256,0.21022,-0.29871,-33.147,-7.335,-3.072,100.783,-9.184,-1.829,5.0,40.4871,22.9999,120.21971,42.6,NaN,,21.6,,0 / 0,5309,2021-01-13 15:18:21:354
-0.15329,2.03546,5.89237,0.02358,2.49849,9.48301,0.52412,0.05539,-0.13679,-31.562,-8.378,-0.883,103.125,-14.76,-0.142,5.0,40.4871,22.9999,120.21971,42.6,NaN,,21.6,,0 / 0,5409,2021-01-13 15:18:21:454
-0.50297,1.73368,9.27422,-0.06516,1.83013,9.63415,-0.99688,-2.7E-4,0.22086,-31.486,-6.918,-0.619,101.947,-14.377,0.204,5.0,39.4271,22.9999,120.21971,42.6,NaN,,21.6,,0 / 0,5509,2021-01-13 15:18:21:554
-0.44309,1.47501,12.96265,-0.08909,0.91183,9.76376,-0.74188,0.09295,0.52882,-32.201,-6.344,-4.49,99.618,-7.787,0.312,5.0,39.4271,22.9999,120.21971,42.6,NaN,,21.6,,0 / 0,5609,2021-01-13 15:18:21:654
0.26346,-0.1728,15.1757,-0.15706,0.64936,9.78387,-0.44535,-0.05139,0.54191,-31.675,-5.037,-4.349,98.23,-5.335,0.523,5.0,39.4271,22.9999,120.21971,42.6,NaN,,21.6,,0 / 0,5709,2021-01-13 15:18:21:754
-0.37603,0.45471,9.21195,-0.05577,0.60011,9.78811,0.594,-0.07336,0.46717,-33.178,-3.044,-4.593,94.874,-2.217,0.647,5.0,40.9476,22.9999,120.21971,42.6,NaN,,21.6,,0 / 0,5809,2021-01-13 15:18:21:854
-0.31376,0.30621,7.69108,0.26091,1.73176,9.64901,0.51809,0.00515,-0.11731,-33.179,-3.066,-4.291,94.077,-7.873,-0.975,5.0,40.9476,22.9999,120.21971,42.6,NaN,,21.6,,0 / 0,5909,2021-01-13 15:18:21:954
-0.55566,1.70015,5.89956,0.12169,1.90298,9.61947,0.32836,0.25655,0.00203,-33.477,-5.687,-2.455,99.33,-11.189,-0.725,5.0,40.9476,22.9999,120.21971,42.6,NaN,,21.6,,0 / 0,6009,2021-01-13 15:18:22:054
0.43111,2.04025,7.14739,-0.05483,2.14237,9.56962,-0.25847,-0.03821,-0.02319,-32.975,-5.189,-3.609,96.984,-12.383,0.142,5.0,40.9476,22.9999,120.21971,42.6,NaN,,21.6,,0 / 0,6109,2021-01-13 15:18:22:154
-0.69218,2.27497,9.02514,0.09593,1.67212,9.66257,-0.49405,-0.24585,-0.29019,-33.331,-5.391,-2.968,97.441,-11.585,0.129,5.0,39.7379,22.9999,120.21971,42.6,NaN,,21.6,,0 / 0,6209,2021-01-13 15:18:22:254
0.46704,0.78283,12.70877,0.13256,1.22114,9.72942,-0.8712,0.01817,-0.02244,-33.373,-4.705,-4.274,97.62,-7.153,-0.781,5.0,39.7379,22.9999,120.21971,42.6,NaN,,21.6,,0 / 0,6309,2021-01-13 15:18:22:354
0.70415,-1.59788,15.36731,0.12082,0.065,9.80569,-1.08863,0.08513,0.04588,-34.479,-5.302,-5.22,97.693,-4.282,-0.614,5.0,39.7379,22.9999,120.21971,42.6,NaN,,21.6,,0 / 0,6409,2021-01-13 15:18:22:454
0.70894,-0.42668,10.05023,0.15194,0.71686,9.77923,0.74241,-0.13217,-0.27864,-34.999,-5.116,-5.936,97.989,-0.826,0.192,5.0,40.7491,22.9999,120.21971,42.6,NaN,,21.6,,0 / 0,6509,2021-01-13 15:18:22:554
0.12933,0.95528,6.56539,-0.00789,0.96796,9.75876,0.64844,0.33544,-0.13948,-36.032,-8.017,-5.485,101.722,-5.665,0.046,5.0,40.7491,22.9999,120.21971,42.6,NaN,,21.6,,0 / 0,6610,2021-01-13 15:18:22:655
-0.46704,2.22707,6.24445,-0.18531,1.92235,9.61461,0.21541,0.1368,-0.08204,-32.881,-9.915,-6.131,105.303,-8.694,0.864,5.0,40.7491,22.9999,120.21971,42.6,NaN,,21.6,,0 / 0,6709,2021-01-13 15:18:22:754
0.0958,1.75763,6.79532,-0.33566,1.80416,9.63342,-0.26153,0.12678,0.08689,-33.362,-9.331,-2.703,104.305,-11.345,1.765,5.0,39.477,22.9999,120.21971,42.6,NaN,,21.6,,0 / 0,6810,2021-01-13 15:18:22:855
0.23472,1.82948,12.0118,-0.2156,1.59313,9.67398,-0.88067,0.09395,0.46748,-34.017,-8.788,-5.405,103.413,-10.601,1.996,5.0,39.477,22.9999,120.21971,42.6,NaN,,21.6,,0 / 0,6910,2021-01-13 15:18:22:955
-0.79996,-0.1752,16.12415,-0.33002,0.58724,9.78349,-0.92669,0.1383,0.16587,-36.288,-6.795,-6.456,99.998,-6.478,1.261,5.0,39.477,22.9999,120.21971,42.6,NaN,,21.6,,0 / 0,7009,2021-01-13 15:18:23:054
-0.0958,-0.09137,10.71367,-0.0339,0.46445,9.79559,0.57026,-0.05062,0.20926,-36.699,-7.6,-6.72,101.697,-2.715,0.198,5.0,41.1047,22.9999,120.21971,42.6,NaN,,21.6,,0 / 0,7115,2021-01-13 15:18:23:160
-0.79756,0.38525,8.65869,0.02056,1.03062,9.75232,0.9842,-0.22317,-0.04773,-36.733,-8.317,-4.927,101.346,-6.033,-0.121,5.0,41.1047,22.9999,120.21971,42.6,NaN,,21.6,,0 / 0,7209,2021-01-13 15:18:23:254
-0.4407,1.22592,6.16062,-0.00701,1.76944,9.64569,0.36159,0.14967,-0.0206,-36.668,-10.376,-2.535,104.24,-8.736,-0.453,5.0,41.1047,22.9999,120.21971,42.6,NaN,,21.6,,0 / 0,7309,2021-01-13 15:18:23:354
-1.05384,2.61028,5.00619,-0.22785,2.09105,9.57841,0.26472,0.18161,-0.06753,-36.375,-10.707,-2.77,105.929,-11.407,0.767,5.0,41.1047,22.9999,120.21971,42.6,NaN,,21.6,,0 / 0,7410,2021-01-13 15:18:23:455
-0.24669,1.86301,8.26829,-0.23583,1.92924,9.61212,-0.8114,-0.19157,-0.27802,-37.876,-12.379,-3.916,106.199,-12.312,1.363,5.0,40.3779,22.9999,120.21971,42.6,NaN,,21.6,,0 / 0,7509,2021-01-13 15:18:23:554
-0.65625,1.45585,12.68003,-0.08799,1.08754,9.74576,-0.63928,-0.15032,-0.30771,-36.921,-12.698,-4.066,108.122,-11.346,1.405,5.0,40.3779,22.9999,120.21971,42.6,NaN,,21.6,,0 / 0,7609,2021-01-13 15:18:23:654
0.5365,0.18646,14.01648,0.05021,0.57109,9.78988,-0.36599,-0.28501,-0.08754,-37.637,-11.444,-3.227,105.791,-4.496,0.403,5.0,40.3779,22.9999,120.21971,42.6,NaN,,21.6,,0 / 0,7708,2021-01-13 15:18:23:753
0.27064,-0.24466,10.17477,0.19858,0.36377,9.79789,0.14114,-0.1185,-0.19175,-36.687,-13.832,-1.868,110.599,-2.126,-1.161,5.0,40.3285,22.9999,120.21971,42.6,NaN,,21.6,,0 / 0,7809,2021-01-13 15:18:23:854
0.74726,0.56728,8.71138,0.24971,1.12671,9.73851,0.45442,0.30184,-0.19135,-36.474,-16.629,-0.19,115.121,-4.45,-1.535,5.0,40.3285,22.9999,120.21971,42.6,NaN,,21.6,,0 / 0,7909,2021-01-13 15:18:23:954
-0.4886,2.07618,5.49,-0.1381,1.77703,9.64331,0.66442,0.26629,-0.33495,-38.277,-17.382,-0.582,113.682,-8.113,-0.263,5.0,40.3285,22.9999,120.21971,42.6,NaN,,21.6,,0 / 0,8010,2021-01-13 15:18:24:055
-0.56284,2.05941,6.19894,-0.33421,1.97957,9.59896,-0.35881,0.22594,0.09336,-35.379,-17.113,-0.689,115.491,-11.646,1.994,5.0,39.9856,22.9999,120.21971,42.6,NaN,,21.6,,0 / 0,8109,2021-01-13 15:18:24:154
0.08862,1.99474,9.54966,-0.37203,1.53927,9.67794,-0.47332,-0.16139,0.26088,-38.383,-17.58,-2.61,114.651,-10.594,2.812,5.0,39.9856,22.9999,120.21971,42.6,NaN,,21.6,,0 / 0,8209,2021-01-13 15:18:24:254
-0.16766,1.59955,14.27994,-0.15168,0.74799,9.77691,-1.00564,0.02694,0.40263,-38.664,-16.706,-1.228,113.356,-7.308,1.294,5.0,39.9856,22.9999,120.21971,42.6,NaN,,21.6,,0 / 0,8309,2021-01-13 15:18:24:354
0.00958,-1.18832,16.04033,-0.20178,0.22835,9.80191,-0.77105,-0.09417,0.36697,-43.947,-15.184,-3.836,108.707,-1.334,1.179,5.0,41.383,22.9999,120.21971,42.6,NaN,,21.6,,0 / 0,8409,2021-01-13 15:18:24:454
-0.9724,-0.03389,8.87664,0.07209,0.4818,9.79454,1.46997,-0.24411,0.18516,-45.066,-16.049,-2.747,109.592,0.439,0.243,5.0,41.383,22.9999,120.21971,42.6,NaN,,21.6,,0 / 0,8509,2021-01-13 15:18:24:554
-0.29699,0.49542,7.66713,0.16402,1.55501,9.68119,0.66133,0.02096,0.22762,-47.279,-14.688,0.216,107.43,-7.391,-1.158,5.0,41.383,22.9999,120.21971,42.6,NaN,,21.6,,0 / 0,8609,2021-01-13 15:18:24:654
-0.46704,1.75044,5.67202,0.09838,1.90245,9.61984,0.46554,0.27082,0.15541,-47.215,-14.511,2.138,107.705,-11.186,-0.586,5.0,41.383,22.9999,120.21971,42.6,NaN,,21.6,,0 / 0,8709,2021-01-13 15:18:24:754
0.17724,2.10731,6.79532,-0.16041,2.28786,9.53469,0.10531,0.17342,0.09931,-49.103,-13.014,1.332,104.794,-12.849,0.224,5.0,41.0935,22.9999,120.21971,42.6,NaN,,21.6,,0 / 0,8809,2021-01-13 15:18:24:854
-0.06227,1.8678,10.93162,-0.0742,1.54827,9.68337,-0.99325,-0.11919,-0.28046,-51.119,-12.711,1.412,104.345,-12.423,0.667,5.0,41.0935,22.9999,120.21971,42.6,NaN,,21.6,,0 / 0,8909,2021-01-13 15:18:24:954
0.11736,0.80678,14.06199,0.00582,1.04182,9.75115,-0.72569,-0.23894,-0.28622,-52.883,-13.481,0.588,103.811,-6.098,-0.034,5.0,41.0935,22.9999,120.21971,42.6,NaN,,21.6,,0 / 0,9010,2021-01-13 15:18:25:055
0.6826,-0.92246,15.15175,0.28354,0.40095,9.79435,-0.09467,0.06694,-0.17633,-54.053,-12.815,1.797,103.578,-4.175,-0.914,5.0,41.0597,22.9999,120.21971,42.6,NaN,,21.6,,0 / 0,9109,2021-01-13 15:18:25:154
0.91732,0.56967,8.94849,0.29493,1.21835,9.7262,1.1741,-0.1094,-0.24284,-56.998,-11.91,0.42,101.814,-3.036,-1.209,5.0,41.0597,22.9999,120.21971,42.6,NaN,,21.6,,0 / 0,9210,2021-01-13 15:18:25:255
0.09341,1.29059,6.9031,0.22023,1.71283,9.6534,0.86653,0.07921,-0.44613,-55.711,-12.597,4.241,103.319,-10.059,-1.307,5.0,41.0597,22.9999,120.21971,42.6,NaN,,21.6,,0 / 0,9310,2021-01-13 15:18:25:355
-0.32334,2.51927,5.7319,0.05515,2.61465,9.45151,0.62417,0.05725,-0.24765,-55.56,-11.693,3.622,102.498,-12.994,-0.768,5.0,41.2374,22.9999,120.21971,42.6,NaN,,21.6,,0 / 0,9409,2021-01-13 15:18:25:454
0.2898,2.16958,7.49707,-0.0575,2.2771,9.53844,-0.50979,0.03779,0.27264,-56.68,-10.235,1.872,100.132,-15.552,0.058,5.0,41.2374,22.9999,120.21971,42.6,NaN,,21.6,,0 / 0,9509,2021-01-13 15:18:25:554
1.48016,2.55998,9.57121,0.06621,2.08432,9.58236,-0.43084,-0.09121,0.35695,-59.965,-7.124,0.746,96.62,-12.271,-0.396,5.0,41.2374,22.9999,120.21971,42.6,NaN,,21.6,,0 / 0,9608,2021-01-13 15:18:25:653
0.64428,2.46178,13.69554,0.01889,1.17242,9.7363,-1.09106,0.17601,0.11331,-60.613,-3.76,-0.388,93.58,-10.399,-0.612,5.0,40.5191,22.9999,120.21971,42.6,NaN,,21.6,,0 / 0,9708,2021-01-13 15:18:25:753
0.41435,-0.20634,15.1757,0.10773,0.25074,9.80285,-0.71382,-0.17262,-0.08516,-61.761,2.05,-1.469,88.1,-3.412,-0.011,5.0,40.5191,22.9999,120.21971,42.6,NaN,,21.6,,0 / 0,9810,2021-01-13 15:18:25:855
-0.50057,-0.00275,8.83592,0.21155,0.97725,9.75554,1.16341,-0.3991,-0.22645,-59.473,4.214,-0.043,86.017,-5.719,-1.242,5.0,40.5191,22.9999,120.21971,42.6,NaN,,21.6,,0 / 0,9910,2021-01-13 15:18:25:955
0.03353,0.55769,7.39169,0.33783,1.91162,9.61259,0.44639,0.18561,0.00933,-58.144,4.585,0.781,84.878,-9.895,-2.551,5.0,40.5191,22.9999,120.21971,42.6,NaN,,21.6,,0 / 0,10009,2021-01-13 15:18:26:054
-0.3401,2.23904,5.37264,0.09939,2.50205,9.48158,0.14759,0.21841,0.07421,-57.112,6.343,-0.946,83.635,-13.3,-1.246,5.0,41.9485,22.9999,120.21971,42.6,NaN,,21.6,,0 / 0,10109,2021-01-13 15:18:26:154
0.0,1.99474,7.48749,0.02754,2.37642,9.51432,-0.46095,-0.05129,0.04141,-56.781,7.47,-3.167,82.445,-14.024,-0.166,5.0,41.9485,22.9999,120.21971,42.6,NaN,,21.6,,0 / 0,10210,2021-01-13 15:18:26:255
-0.42153,1.95642,12.87882,0.20756,1.60833,9.67164,-0.86767,-0.12608,-0.02558,-56.135,9.631,-3.119,79.311,-12.079,-0.761,5.0,41.9485,22.9999,120.21971,42.6,NaN,,21.6,,0 / 0,10309,2021-01-13 15:18:26:354
0.27783,0.2631,14.41407,0.32595,0.6909,9.77685,-0.73737,-0.10386,-0.08491,-54.422,11.19,-3.621,77.908,-6.293,-1.628,5.0,41.5704,22.9999,120.21971,42.6,NaN,,21.6,,0 / 0,10409,2021-01-13 15:18:26:454
1.74841,-0.46979,10.72804,0.3924,0.19305,9.79689,0.65971,0.26533,0.06452,-53.001,12.658,-3.846,76.047,-1.128,-2.294,5.0,41.5704,22.9999,120.21971,42.6,NaN,,21.6,,0 / 0,10509,2021-01-13 15:18:26:554
0.66344,0.90738,6.60371,0.2496,1.39935,9.70309,1.59999,0.05651,-0.22862,-51.631,10.275,-5.431,78.801,-2.543,-1.39,5.0,41.5704,22.9999,120.21971,42.6,NaN,,21.6,,0 / 0,10608,2021-01-13 15:18:26:653
-0.35687,1.78637,5.90195,-0.20856,2.07076,9.58326,0.23284,0.26656,-0.34106,-49.515,7.803,-6.122,79.732,-11.244,-0.218,5.0,42.0939,22.9999,120.21971,42.6,NaN,,21.6,,0 / 0,10709,2021-01-13 15:18:26:754
-0.53889,2.77314,5.7798,-0.36246,2.16662,9.55745,-0.01098,0.17672,-0.06527,-47.754,5.775,-7.191,81.748,-12.764,2.172,5.0,42.0939,22.9999,120.21971,42.6,NaN,,21.6,,0 / 0,10808,2021-01-13 15:18:26:853
0.36884,2.03067,9.17603,-0.42745,1.6937,9.64982,-1.00266,-0.10473,0.20972,-46.41,7.026,-11.336,79.366,-12.072,2.527,5.0,42.0939,22.9999,120.21971,42.6,NaN,,21.6,,0 / 0,10909,2021-01-13 15:18:26:954
-0.56763,1.06306,14.36137,-0.27713,0.57321,9.78596,-0.95638,-0.06991,0.16418,-45.515,10.5,-9.618,76.777,-6.356,1.861,5.0,41.6249,22.9999,120.21971,42.6,NaN,,21.6,,0 / 0,11009,2021-01-13 15:18:27:054
-0.10299,-0.74283,16.02356,-0.36944,0.18243,9.79799,-0.35605,-0.15372,0.17656,-45.944,10.325,-10.042,77.644,-1.066,2.159,5.0,41.6249,22.9999,120.21971,42.6,NaN,,21.6,,0 / 0,11110,2021-01-13 15:18:27:155
-1.35801,0.73254,7.52342,-0.18465,0.33253,9.79927,1.07619,-0.19066,0.12571,-43.71,12.693,-10.99,73.701,0.286,1.608,5.0,41.6249,22.9999,120.21971,42.6,NaN,,21.6,,0 / 0,11210,2021-01-13 15:18:27:255
-0.16526,0.311,8.48145,0.08875,1.6854,9.66033,0.29107,0.18586,0.12427,-45.288,10.053,-10.482,75.87,-7.849,-0.37,5.0,41.6249,22.9999,120.21971,42.6,NaN,,21.6,,0 / 0,11309,2021-01-13 15:18:27:354
-0.87899,1.966,5.52832,-0.12527,1.74624,9.64911,0.27193,0.31287,0.05539,-42.031,9.816,-11.911,74.261,-10.257,0.744,5.0,41.6198,22.9999,120.21971,42.6,NaN,,21.6,,0 / 0,11409,2021-01-13 15:18:27:454
-0.45986,2.6462,6.5103,-0.40584,2.0908,9.57258,-0.31544,0.14469,0.12368,-40.494,9.554,-13.052,73.203,-11.537,1.572,5.0,41.6198,22.9999,120.21971,42.6,NaN,,21.6,,0 / 0,11509,2021-01-13 15:18:27:554
-0.76403,1.95882,10.19394,-0.261,1.44715,9.69577,-0.71335,-0.30175,-0.11277,-40.384,8.872,-14.052,74.639,-11.011,2.638,5.0,41.6198,22.9999,120.21971,42.6,NaN,,21.6,,0 / 0,11609,2021-01-13 15:18:27:654
0.13173,1.16844,13.16383,-0.24694,0.78137,9.77235,-0.44878,-0.1005,-0.03094,-40.993,10.102,-13.631,75.099,-4.57,1.448,5.0,40.5379,22.9999,120.21971,42.6,NaN,,21.6,,0 / 0,11710,2021-01-13 15:18:27:755
1.19035,-0.95839,14.04762,0.01972,0.53213,9.79218,0.08135,-0.35556,-0.18395,-41.125,9.748,-14.452,75.609,-2.708,1.374,5.0,40.5379,22.9999,120.21971,42.6,NaN,,21.6,,0 / 0,11811,2021-01-13 15:18:27:856
0.07664,0.35411,9.20477,-0.03352,1.12916,9.74137,1.10009,0.09529,-0.30317,-41.14,8.814,-13.078,76.651,-3.259,-0.051,5.0,40.5379,22.9999,120.21971,42.6,NaN,,21.6,,0 / 0,11910,2021-01-13 15:18:27:955
0.28022,1.46304,7.74616,-0.20466,1.63761,9.66678,0.70067,0.26264,-0.31386,-38.617,5.652,-16.082,77.876,-9.613,1.213,5.0,40.0452,22.9999,120.21971,42.6,NaN,,21.6,,0 / 0,12009,2021-01-13 15:18:28:054
-0.96761,2.38514,5.03972,-0.56503,2.15261,9.55078,0.34473,0.07952,-0.38541,-37.964,2.209,-16.891,82.617,-11.287,2.177,5.0,40.0452,22.9999,120.21971,42.6,NaN,,21.6,,0 / 0,12108,2021-01-13 15:18:28:153
0.05269,1.96361,8.35212,-0.51868,2.07724,9.57008,-0.35707,-0.20148,-0.03352,-34.666,0.242,-15.862,84.923,-13.602,3.871,5.0,40.0452,22.9999,120.21971,42.6,NaN,,21.6,,0 / 0,12209,2021-01-13 15:18:28:254
-0.64907,1.51333,12.75188,-0.31533,1.63989,9.66342,-0.63993,-0.23523,0.27476,-37.4,1.294,-16.051,84.731,-9.626,1.869,5.0,40.0547,22.9999,120.21971,42.6,NaN,,21.6,,0 / 0,12309,2021-01-13 15:18:28:354
0.71613,1.89654,14.60807,-0.01947,1.03028,9.75236,-0.43893,-0.14063,0.52448,-38.853,5.259,-15.804,79.987,-7.331,0.846,5.0,40.0547,22.9999,120.21971,42.6,NaN,,21.6,,0 / 0,12408,2021-01-13 15:18:28:453
-0.55326,-0.08658,10.96755,0.32864,0.77949,9.7701,0.55081,-0.26938,0.06337,-37.792,5.641,-17.619,78.912,-4.469,-0.55,5.0,40.0547,22.9999,120.21971,42.6,NaN,,21.6,,0 / 0,12509,2021-01-13 15:18:28:554
-0.72571,0.78523,7.91382,0.47275,1.49106,9.6811,1.39091,-0.34245,0.03872,-36.054,3.386,-16.487,80.856,-8.745,-2.796,5.0,40.0547,22.9999,120.21971,42.6,NaN,,21.6,,0 / 0,12611,2021-01-13 15:18:28:656
-0.30418,1.70973,6.47438,0.34931,2.30024,9.52666,0.33391,0.55105,0.3871,-36.634,1.006,-16.046,82.232,-12.485,-3.43,5.0,41.6378,22.9999,120.21971,42.6,NaN,,21.6,,0 / 0,12710,2021-01-13 15:18:28:755
-0.81433,2.86416,3.73201,-0.0252,2.84767,9.38406,0.59087,0.32808,0.31188,-33.712,2.413,-18.307,78.93,-14.779,-0.593,5.0,41.6378,22.9999,120.21971,42.6,NaN,,21.6,,0 / 0,12809,2021-01-13 15:18:28:854
0.22753,2.46418,10.67774,0.10549,2.81729,9.39266,-1.13059,-0.13746,0.1279,-33.72,1.249,-18.919,79.068,-16.695,-0.643,5.0,41.6378,22.9999,120.21971,42.6,NaN,,21.6,,0 / 0,12909,2021-01-13 15:18:28:954
-0.10299,2.08097,13.06085,0.2737,1.60682,9.67024,-1.0082,-0.12716,-0.05894,-34.686,5.551,-20.544,72.703,-13.042,-1.244,5.0,41.7576,22.9999,120.21971,42.6,NaN,,21.6,,0 / 0,13009,2021-01-13 15:18:29:054
1.77475,-0.78594,15.44874,0.33913,0.46285,9.78985,-0.73706,-0.04255,0.05638,-34.854,7.439,-20.342,74.976,-6.209,-1.681,5.0,41.7576,22.9999,120.21971,42.6,NaN,,21.6,,0 / 0,13109,2021-01-13 15:18:29:154
1.00593,0.55769,9.60954,0.32112,0.45766,9.7907,0.91313,-0.04846,-0.28235,-34.983,6.112,-21.057,78.421,-2.675,-1.879,5.0,41.7576,22.9999,120.21971,42.6,NaN,,21.6,,0 / 0,13209,2021-01-13 15:18:29:254
-0.53171,1.04869,8.10543,0.30707,1.58935,9.67213,0.56173,0.22437,-0.72771,-34.123,1.813,-21.433,81.934,-6.928,-2.414,5.0,41.7757,22.9999,120.21971,42.6,NaN,,21.6,,0 / 0,13309,2021-01-13 15:18:29:354
-0.49578,2.24862,5.22893,-0.03993,2.39416,9.50983,0.80598,0.15663,-0.42371,-34.166,-2.897,-21.66,87.503,-11.37,-0.649,5.0,41.7757,22.9999,120.21971,42.6,NaN,,21.6,,0 / 0,13409,2021-01-13 15:18:29:454
-0.37842,2.61028,7.37253,-0.17222,2.5235,9.47484,-0.4096,0.16586,0.07898,-31.874,-5.544,-21.595,90.508,-14.911,1.041,5.0,41.7757,22.9999,120.21971,42.6,NaN,,21.6,,0 / 0,13509,2021-01-13 15:18:29:554
0.36884,2.3085,9.22872,-0.23254,2.11773,9.57244,-0.35601,-0.1283,0.23624,-32.303,-4.59,-21.951,89.761,-13.721,1.678,5.0,42.0721,22.9999,120.21971,42.6,NaN,,21.6,,0 / 0,13610,2021-01-13 15:18:29:655
0.56763,1.53728,13.53507,-0.02698,1.31136,9.71854,-0.94672,-0.01902,0.50072,-34.339,-3.204,-22.738,87.848,-10.664,0.244,5.0,42.0721,22.9999,120.21971,42.6,NaN,,21.6,,0 / 0,13709,2021-01-13 15:18:29:754
1.05383,0.32058,15.34336,0.08614,0.77528,9.77558,-0.73214,-0.24506,0.33817,-34.049,2.363,-24.271,83.391,-4.534,-0.505,5.0,42.0721,22.9999,120.21971,42.6,NaN,,21.6,,0 / 0,13809,2021-01-13 15:18:29:854
-0.10059,0.91217,8.74731,0.22087,1.1179,9.74022,1.26121,-0.14249,0.12058,-34.676,2.367,-23.1,84.413,-3.334,-1.192,5.0,42.0721,22.9999,120.21971,42.6,NaN,,21.6,,0 / 0,13909,2021-01-13 15:18:29:954
-0.19161,0.95767,7.26954,0.12665,2.08018,9.58265,0.59431,0.27617,0.12869,-34.448,-1.234,-22.454,84.484,-10.491,-1.802,5.0,41.3731,22.9999,120.21971,42.6,NaN,,21.6,,0 / 0,14009,2021-01-13 15:18:30:054
-0.95803,2.72524,4.00026,-0.05897,2.3366,9.52403,0.29273,0.12404,0.15346,-34.492,-2.434,-23.27,84.168,-13.784,0.355,5.0,41.3731,22.9999,120.21971,42.6,NaN,,21.6,,0 / 0,14109,2021-01-13 15:18:30:154
0.74966,2.03785,8.72815,-0.00997,2.41631,9.5043,-0.47253,-0.25624,0.19747,-34.07,-2.789,-22.212,85.561,-15.039,0.932,5.0,41.3731,22.9999,120.21971,42.6,NaN,,21.6,,0 / 0,14209,2021-01-13 15:18:30:254
0.27304,2.49292,10.36159,0.1272,1.54713,9.68301,-0.50536,-0.28068,-0.28851,-34.215,-1.862,-21.799,85.972,-11.204,-0.572,5.0,41.3253,22.9999,120.21971,42.6,NaN,,21.6,,0 / 0,14309,2021-01-13 15:18:30:354
0.57721,0.70619,14.30868,0.35373,1.21561,9.72459,-0.86211,-0.38061,-0.39912,-33.685,-0.675,-20.53,86.963,-7.121,-2.083,5.0,41.3253,22.9999,120.21971,42.6,NaN,,21.6,,0 / 0,14409,2021-01-13 15:18:30:454
0.99875,-0.37639,11.3819,0.49476,0.33775,9.78834,0.58873,-0.00422,-0.20663,-34.928,0.504,-22.546,85.37,-4.042,-2.836,5.0,41.3253,22.9999,120.21971,42.6,NaN,,21.6,,0 / 0,14509,2021-01-13 15:18:30:554
0.89097,0.33256,9.18082,0.56082,1.46638,9.68017,1.11689,-0.11747,-0.41387,-34.38,-0.541,-19.424,88.598,-4.97,-3.078,5.0,41.2531,22.9999,120.21971,42.6,NaN,,21.6,,0 / 0,14609,2021-01-13 15:18:30:654
-0.62991,2.16958,4.35233,0.35853,1.79675,9.63398,1.05138,0.25732,-0.45165,-35.066,-5.545,-20.589,93.038,-10.557,-2.131,5.0,41.2531,22.9999,120.21971,42.6,NaN,,21.6,,0 / 0,14709,2021-01-13 15:18:30:754
-0.78559,2.82105,4.7116,0.02596,2.76337,9.40922,0.32352,0.0856,-0.27046,-32.786,-8.763,-19.785,96.456,-14.206,-0.816,5.0,41.2531,22.9999,120.21971,42.6,NaN,,21.6,,0 / 0,14809,2021-01-13 15:18:30:854
0.31855,2.83302,9.93048,-0.13919,2.15044,9.56695,-0.54206,-0.17166,0.3103,-31.201,-7.99,-19.486,95.405,-14.859,0.672,5.0,40.5307,22.9999,120.21971,42.6,NaN,,21.6,,0 / 0,14909,2021-01-13 15:18:30:954
0.0958,3.427,13.39855,0.10094,1.83175,9.63353,-0.83072,-0.09646,0.44748,-33.171,-3.429,-21.587,87.857,-10.765,-0.6,5.0,40.5307,22.9999,120.21971,42.6,NaN,,21.6,,0 / 0,15009,2021-01-13 15:18:31:054
-0.56045,0.41878,13.27401,0.1757,1.00793,9.75313,0.16243,-0.23888,0.13488,-31.244,-1.123,-21.708,86.253,-7.782,-0.425,5.0,40.5307,22.9999,120.21971,42.6,NaN,,21.6,,0 / 0,15108,2021-01-13 15:18:31:153
-0.56524,0.699,9.2359,0.42568,1.79811,9.63099,1.02908,-0.1739,0.16416,-33.828,-2.995,-18.196,91.044,-7.103,-1.97,5.0,40.5307,22.9999,120.21971,42.6,NaN,,21.6,,0 / 0,15210,2021-01-13 15:18:31:255
0.23951,0.69661,8.20123,0.60925,2.04521,9.57164,0.45268,0.17087,0.16131,-32.558,-1.955,-16.471,86.752,-12.038,-3.642,5.0,41.4261,22.9999,120.21971,42.6,NaN,,21.6,,0 / 0,15309,2021-01-13 15:18:31:354
-0.37363,2.77314,5.65765,0.30924,2.61777,9.44574,0.72391,0.53025,0.14284,-32.696,-4.551,-19.427,90.147,-13.233,-3.368,5.0,41.4261,22.9999,120.21971,42.6,NaN,,21.6,,0 / 0,15409,2021-01-13 15:18:31:454
-0.32573,2.79949,7.00608,-0.39783,2.75763,9.40253,-0.39386,0.37614,-0.16308,-31.268,-5.402,-18.397,89.106,-17.167,0.313,5.0,41.4261,22.9999,120.21971,42.6,NaN,,21.6,,0 / 0,15509,2021-01-13 15:18:31:554
-1.16401,2.10731,11.26933,-0.42924,2.55024,9.45951,-0.67142,-0.28353,-0.37625,-31.909,-4.401,-20.861,87.885,-15.073,2.598,5.0,40.3709,22.9999,120.21971,42.6,NaN,,21.6,,0 / 0,15609,2021-01-13 15:18:31:654
2.1436,0.72056,15.03439,-0.27812,1.57443,9.67544,-0.95357,-0.37949,-0.20267,-32.154,-2.032,-22.152,85.965,-11.888,2.224,5.0,40.3709,22.9999,120.21971,42.6,NaN,,21.6,,0 / 0,15709,2021-01-13 15:18:31:754
0.06227,-0.52728,13.07282,0.02073,0.81956,9.77232,-0.35394,-0.19577,-0.58115,-31.324,-2.076,-20.132,89.962,-5.841,0.455,5.0,40.3709,22.9999,120.21971,42.6,NaN,,21.6,,0 / 0,15809,2021-01-13 15:18:31:854
0.01916,1.15167,7.65994,0.21413,1.10864,9.74143,0.97167,0.13623,-0.34153,-31.768,-4.21,-18.757,93.168,-6.491,-1.259,5.0,41.1006,22.9999,120.21971,42.6,NaN,,21.6,,0 / 0,15910,2021-01-13 15:18:31:955
-0.57721,2.68932,4.88644,0.05571,2.30593,9.53152,1.11469,-0.00363,-0.31289,-31.12,-7.982,-16.729,99.343,-9.372,-0.639,5.0,41.1006,22.9999,120.21971,42.6,NaN,,21.6,,0 / 0,16010,2021-01-13 15:18:32:055
-0.70655,2.31568,6.9965,-0.20697,2.27799,9.53616,-0.46873,0.18943,-3.3E-4,-32.218,-8.629,-16.813,97.729,-14.871,0.072,5.0,41.1006,22.9999,120.21971,42.6,NaN,,21.6,,0 / 0,16109,2021-01-13 15:18:32:154
0.62272,2.74919,8.15572,-0.17323,2.03765,9.59106,-0.44957,-0.15507,0.35278,-31.202,-6.988,-16.034,96.636,-11.992,1.035,5.0,40.8878,22.9999,120.21971,42.6,NaN,,21.6,,0 / 0,16209,2021-01-13 15:18:32:254
0.06467,1.01516,14.70866,-0.01611,1.08424,9.74651,-0.91268,-0.02146,0.41119,-30.183,-5.064,-16.208,94.015,-10.184,0.18,5.0,40.8878,22.9999,120.21971,42.6,NaN,,21.6,,0 / 0,16309,2021-01-13 15:18:32:354
0.69936,0.08107,14.7398,0.34143,0.49575,9.78816,-0.22623,-0.42256,0.55783,-29.568,-0.957,-16.856,89.851,-3.585,-0.385,5.0,40.8878,22.9999,120.21971,42.6,NaN,,21.6,,0 / 0,16409,2021-01-13 15:18:32:454
0.11496,0.25352,9.38679,0.46517,0.72345,9.76886,0.92365,-0.2701,0.18721,-30.669,-0.895,-15.263,89.589,-4.231,-2.726,5.0,40.8878,22.9999,120.21971,42.6,NaN,,21.6,,0 / 0,16509,2021-01-13 15:18:32:554
0.37124,0.39483,7.1929,0.62191,1.61264,9.65313,0.56045,0.15925,0.08677,-31.772,-1.082,-14.316,87.968,-7.462,-3.823,5.0,42.4485,22.9999,120.21971,42.6,NaN,,21.6,,0 / 0,16609,2021-01-13 15:18:32:654
-0.55087,2.10013,6.29714,0.16336,1.92991,9.61349,0.21367,0.40773,-0.04968,-30.044,-0.86,-15.062,86.016,-11.35,-0.974,5.0,42.4485,22.9999,120.21971,42.6,NaN,,21.6,,0 / 0,16710,2021-01-13 15:18:32:755
-0.3401,2.04743,7.15218,-0.06041,1.96563,9.60745,-0.21246,0.21953,-0.15691,-28.744,-1.002,-15.702,85.695,-11.563,0.36,5.0,42.4485,22.9999,120.21971,42.6,NaN,,21.6,,0 / 0,16809,2021-01-13 15:18:32:854
0.45985,2.27257,11.01545,-0.02776,1.41263,9.70433,-0.28753,-0.24085,0.0862,-29.119,-0.758,-14.668,86.79,-10.355,0.814,5.0,40.7596,22.9999,120.21971,42.6,NaN,,21.6,,0 / 0,16909,2021-01-13 15:18:32:954
0.29938,1.28819,12.28724,0.20204,1.08506,9.74434,-0.35891,-0.15498,0.02168,-30.748,-0.66,-13.572,88.361,-7.464,-0.777,5.0,40.7596,22.9999,120.21971,42.6,NaN,,21.6,,0 / 0,17009,2021-01-13 15:18:33:054
1.35082,-0.89612,13.73865,0.33242,0.94223,9.75562,-0.28413,0.06984,0.01617,-28.853,0.069,-14.272,87.11,-5.514,-1.952,5.0,40.7596,22.9999,120.21971,42.6,NaN,,21.6,,0 / 0,17109,2021-01-13 15:18:33:154
0.71613,0.28705,10.14364,0.1872,0.86637,9.76651,0.52447,0.2621,-0.11602,-29.308,0.439,-14.261,87.737,-4.261,-2.245,5.0,41.184,22.9999,120.21971,42.6,NaN,,21.6,,0 / 0,17209,2021-01-13 15:18:33:254
-0.26585,1.92529,6.19415,-0.08106,1.88486,9.62347,0.81152,0.13843,-0.39933,-28.321,-2.347,-13.809,89.97,-8.071,-0.424,5.0,41.184,22.9999,120.21971,42.6,NaN,,21.6,,0 / 0,17309,2021-01-13 15:18:33:354
-0.46944,2.49771,5.92351,-0.19382,2.24856,9.54342,0.33827,0.20697,-0.36012,-27.122,-4.438,-13.017,92.183,-13.255,1.163,5.0,41.184,22.9999,120.21971,42.6,NaN,,21.6,,0 / 0,17409,2021-01-13 15:18:33:454
-0.17005,2.33963,6.61329,-0.42402,2.21494,9.54383,-0.28314,0.05547,0.2,-25.6,-5.874,-12.429,96.882,-13.843,2.154,5.0,40.947,22.9999,120.21971,42.6,NaN,,21.6,,0 / 0,17509,2021-01-13 15:18:33:554
-0.91253,2.17198,11.15436,-0.33305,1.80758,9.63287,-0.4738,-0.05452,0.31926,-26.414,-3.058,-11.864,91.405,-12.115,2.444,5.0,40.947,22.9999,120.21971,42.6,NaN,,21.6,,0 / 0,17609,2021-01-13 15:18:33:654
0.28741,-0.28777,14.83081,-0.21171,1.33596,9.71292,-0.96585,-0.30514,0.25239,-27.006,-1.237,-11.821,88.815,-7.83,1.249,5.0,40.947,22.9999,120.21971,42.6,NaN,,21.6,,0 / 0,17710,2021-01-13 15:18:33:755
-0.36884,0.66787,11.32441,0.20493,0.55211,9.78895,0.04704,-0.29118,0.20309,-26.641,0.574,-11.072,86.267,-4.038,0.227,5.0,40.947,22.9999,120.21971,42.6,NaN,,21.6,,0 / 0,17809,2021-01-13 15:18:33:854
0.04551,0.0667,11.0849,0.28979,0.97561,9.7537,0.3233,0.13939,0.00998,-27.28,-1.594,-10.676,92.159,-4.788,-1.813,5.0,41.2124,22.9999,120.21971,42.6,NaN,,21.6,,0 / 0,17910,2021-01-13 15:18:33:955
-0.5341,2.08576,5.76064,0.17985,1.26104,9.72357,0.86907,0.16188,0.02243,-27.368,-2.911,-11.157,93.197,-7.388,-1.06,5.0,41.2124,22.9999,120.21971,42.6,NaN,,21.6,,0 / 0,18009,2021-01-13 15:18:34:054
-0.20358,2.66297,5.93788,0.01571,2.37011,9.51592,0.21062,0.14119,-0.0222,-27.169,-4.134,-10.565,92.572,-13.986,-0.095,5.0,41.2124,22.9999,120.21971,42.6,NaN,,21.6,,0 / 0,18111,2021-01-13 15:18:34:156
-0.47183,2.1145,9.46823,0.01593,2.20809,9.55481,-0.41266,-0.22167,-0.265,-28.334,-4.423,-9.476,93.468,-14.371,0.497,5.0,41.0575,22.9999,120.21971,42.6,NaN,,21.6,,0 / 0,18209,2021-01-13 15:18:34:254
0.08383,1.70015,10.88372,0.09838,1.78913,9.64156,-0.82544,-0.23604,-0.11015,-26.942,-3.442,-9.072,92.676,-10.512,-0.585,5.0,41.0575,22.9999,120.21971,42.6,NaN,,21.6,,0 / 0,18309,2021-01-13 15:18:34:354
1.74122,-0.79074,15.14936,0.39832,0.79332,9.76639,-0.92989,-0.30888,-0.0118,-27.387,-3.475,-8.864,93.625,-7.681,-1.139,5.0,41.0575,22.9999,120.21971,42.6,NaN,,21.6,,0 / 0,18410,2021-01-13 15:18:34:455
1.16161,-0.68056,12.14113,0.52383,0.60943,9.77367,0.67077,-0.14344,-0.31013,-28.518,-1.253,-9.972,91.149,-2.19,-2.293,5.0,40.4074,22.9999,120.21971,42.6,NaN,,21.6,,0 / 0,18509,2021-01-13 15:18:34:554
0.34729,1.44148,6.36181,0.42086,1.0106,9.74536,0.89556,0.43084,-0.33518,-27.808,-5.543,-9.086,100.106,-5.915,-2.473,5.0,40.4074,22.9999,120.21971,42.6,NaN,,21.6,,0 / 0,18610,2021-01-13 15:18:34:655
-0.50536,3.04379,4.00744,-0.04502,2.23462,9.54855,0.43734,0.27737,-0.36317,-27.489,-5.345,-8.189,97.517,-9.455,-0.946,5.0,40.4074,22.9999,120.21971,42.6,NaN,,21.6,,0 / 0,18709,2021-01-13 15:18:34:754
-0.18203,2.36119,7.61443,-0.47152,2.12023,9.56309,-0.52928,0.31153,-0.17892,-26.01,-7.571,-8.285,102.803,-14.278,1.565,5.0,41.6583,22.9999,120.21971,42.6,NaN,,21.6,,0 / 0,18809,2021-01-13 15:18:34:854
0.37603,2.15042,11.00347,-0.44372,1.97023,9.59644,-0.82051,-0.18479,0.18616,-25.144,-7.72,-8.312,104.307,-11.59,2.647,5.0,41.6583,22.9999,120.21971,42.6,NaN,,21.6,,0 / 0,18910,2021-01-13 15:18:34:955
-0.11975,0.17448,13.94463,-0.33115,1.02611,9.7472,-0.92279,0.06098,0.19052,-24.157,-5.819,-7.57,101.092,-9.246,1.649,5.0,41.6583,22.9999,120.21971,42.6,NaN,,21.6,,0 / 0,19009,2021-01-13 15:18:35:054
-0.95803,0.07868,12.02857,0.02436,0.59147,9.78877,0.23881,-0.25813,0.13403,-25.001,-5.722,-8.168,102.369,-3.607,1.045,5.0,41.6583,22.9999,120.21971,42.6,NaN,,21.6,,0 / 0,19109,2021-01-13 15:18:35:154
-0.32573,0.08347,10.84061,0.1655,0.82443,9.77053,0.4368,-0.17684,0.12482,-27.088,-5.685,-4.643,101.592,-4.822,-0.97,5.0,41.3056,22.9999,120.21971,42.6,NaN,,21.6,,0 / 0,19209,2021-01-13 15:18:35:254
-0.05988,0.85708,6.54144,0.11548,1.18159,9.73452,0.53778,0.22643,0.12983,-27.12,-5.53,-5.856,101.142,-5.928,-1.129,5.0,41.3056,22.9999,120.21971,42.6,NaN,,21.6,,0 / 0,19309,2021-01-13 15:18:35:354
-0.72331,2.31808,5.29839,-0.09193,1.81905,9.63603,0.54476,0.14956,0.10434,-28.512,-6.333,-3.08,100.693,-8.798,0.082,5.0,41.3056,22.9999,120.21971,42.6,NaN,,21.6,,0 / 0,19409,2021-01-13 15:18:35:454
-0.34968,2.14324,7.921,-0.16619,1.82969,9.63302,-0.10127,-0.29932,-0.12664,-28.07,-7.025,-4.32,102.498,-10.753,0.988,5.0,41.5743,22.9999,120.21971,42.6,NaN,,21.6,,0 / 0,19509,2021-01-13 15:18:35:554
0.13412,1.44387,11.43938,0.04418,1.55444,9.68257,-0.63356,-0.14535,-0.11385,-27.952,-7.496,-2.424,103.083,-10.881,0.126,5.0,41.5743,22.9999,120.21971,42.6,NaN,,21.6,,0 / 0,19609,2021-01-13 15:18:35:654
1.5113,0.31819,13.90871,0.15077,0.88729,9.76526,-0.3283,-0.13817,0.03622,-26.519,-6.69,-3.536,103.504,-6.388,-0.78,5.0,41.5743,22.9999,120.21971,42.6,NaN,,21.6,,0 / 0,19709,2021-01-13 15:18:35:754
0.93169,-0.10335,12.5962,0.2578,0.71921,9.77684,0.04292,-0.02039,-0.23976,-29.016,-6.167,-3.701,101.038,-4.206,-1.51,5.0,42.1941,22.9999,120.21971,42.6,NaN,,21.6,,0 / 0,19809,2021-01-13 15:18:35:854
0.8263,0.93612,7.83239,0.29073,1.16035,9.73342,0.54586,0.20562,-0.33174,-26.384,-6.946,-2.059,104.542,-5.214,-1.472,5.0,42.1941,22.9999,120.21971,42.6,NaN,,21.6,,0 / 0,19909,2021-01-13 15:18:35:954
-0.52931,2.10971,4.93434,0.05852,1.92881,9.61492,0.74784,0.08209,-0.44126,-26.882,-10.767,-0.951,111.559,-8.763,-0.813,5.0,42.1941,22.9999,120.21971,42.6,NaN,,21.6,,0 / 0,20009,2021-01-13 15:18:36:054
-0.70176,1.6283,5.52113,-0.10747,2.13215,9.57146,-0.13942,-0.01977,-0.21063,-25.11,-11.561,-1.7,114.379,-12.557,0.643,5.0,43.306,22.9999,120.21971,42.6,NaN,,21.6,,0 / 0,20109,2021-01-13 15:18:36:154
-0.20358,1.93247,9.6742,-0.02429,1.80849,9.63842,-0.66275,-0.28356,0.10129,-25.424,-12.105,-0.303,115.28,-12.427,0.919,5.0,43.306,22.9999,120.21971,42.6,NaN,,21.6,,0 / 0,20209,2021-01-13 15:18:36:254
0.67302,1.34328,13.35065,0.06423,0.8335,9.77095,-0.83198,0.04612,0.54697,-27.488,-10.994,-1.254,111.667,-8.181,-0.318,5.0,43.306,22.9999,120.21971,42.6,NaN,,21.6,,0 / 0,20309,2021-01-13 15:18:36:354
0.54129,-0.30693,14.07157,0.16627,0.4648,9.79422,-0.40659,-0.22975,0.39674,-28.37,-9.1,-2.882,107.526,-2.717,-0.973,5.0,43.306,22.9999,120.21971,42.6,NaN,,21.6,,0 / 0,20409,2021-01-13 15:18:36:454
0.25148,-0.06024,11.1855,0.25719,0.59581,9.78515,0.68456,-0.15142,0.13399,-29.614,-7.661,-1.696,104.632,-3.483,-1.506,5.0,42.298,22.9999,120.21971,42.6,NaN,,21.6,,0 / 0,20510,2021-01-13 15:18:36:555
0.50536,0.37806,8.55091,0.22865,1.1785,9.73289,0.45739,0.19308,0.03707,-29.85,-7.904,0.001,104.698,-5.467,-1.991,5.0,42.298,22.9999,120.21971,42.6,NaN,,21.6,,0 / 0,20609,2021-01-13 15:18:36:654
-0.78319,2.0642,5.6816,0.11774,1.56346,9.6805,0.58029,0.19511,-0.20806,-28.74,-9.353,-1.002,106.651,-9.174,-0.697,5.0,42.298,22.9999,120.21971,42.6,NaN,,21.6,,0 / 0,20709,2021-01-13 15:18:36:754
-0.92211,2.16958,7.32463,-0.14015,2.14362,9.56847,0.15534,-0.02114,-0.33572,-28.252,-9.182,-0.284,107.529,-11.314,0.197,5.0,41.4217,22.9999,120.21971,42.6,NaN,,21.6,,0 / 0,20808,2021-01-13 15:18:36:853
-0.69936,1.93487,10.38794,0.08622,1.81058,9.63767,-0.69038,-0.224,-0.26734,-29.899,-9.988,0.405,108.075,-12.313,0.188,5.0,41.4217,22.9999,120.21971,42.6,NaN,,21.6,,0 / 0,20909,2021-01-13 15:18:36:954
-0.10538,0.06191,13.43687,0.16737,1.38978,9.70623,-0.90283,-0.29417,-0.12041,-28.733,-10.955,1.503,110.928,-8.147,-0.988,5.0,41.4217,22.9999,120.21971,42.6,NaN,,21.6,,0 / 0,21009,2021-01-13 15:18:37:054
1.67177,-0.52009,13.11354,0.3544,0.28372,9.79614,0.19734,-0.0713,0.21385,-29.219,-10.481,1.408,108.957,-4.717,-1.958,5.0,42.1461,22.9999,120.21971,42.6,NaN,,21.6,,0 / 0,21109,2021-01-13 15:18:37:154
0.9748,0.80439,9.31015,0.46485,0.82142,9.76113,0.66069,-0.02767,-0.03522,-29.738,-8.295,0.793,104.881,-2.659,-2.55,5.0,42.1461,22.9999,120.21971,42.6,NaN,,21.6,,0 / 0,21209,2021-01-13 15:18:37:254
-0.21556,2.01869,5.46365,0.39914,1.26023,9.71714,1.03522,0.21637,-0.41056,-30.227,-9.083,0.136,106.303,-7.383,-2.352,5.0,42.1461,22.9999,120.21971,42.6,NaN,,21.6,,0 / 0,21309,2021-01-13 15:18:37:354
-1.05863,2.46897,6.63964,0.01604,2.22428,9.55106,0.25196,0.45211,-0.29728,-28.916,-10.063,1.646,109.072,-11.042,-1.612,5.0,43.2422,22.9999,120.21971,42.6,NaN,,21.6,,0 / 0,21409,2021-01-13 15:18:37:454
-0.57721,2.48334,8.24195,-0.40704,1.84154,9.62359,-0.40111,-0.01221,0.20061,-29.305,-10.52,-0.153,110.849,-10.824,2.422,5.0,43.2422,22.9999,120.21971,42.6,NaN,,21.6,,0 / 0,21510,2021-01-13 15:18:37:555
-0.28262,1.69057,10.7448,-0.37445,1.63902,9.66146,-0.50621,-0.10396,0.38406,-29.773,-10.335,0.852,108.849,-9.621,2.22,5.0,43.2422,22.9999,120.21971,42.6,NaN,,21.6,,0 / 0,21609,2021-01-13 15:18:37:654
-0.05988,-1.82301,18.21506,-0.12552,0.75084,9.77706,-1.30875,-0.87344,0.21336,-31.803,-7.564,-0.035,104.088,-7.41,1.324,5.0,43.2422,22.9999,120.21971,42.6,NaN,,21.6,,0 / 0,21709,2021-01-13 15:18:37:754
-0.40956,-0.68535,10.10771,0.66396,-0.16416,9.78277,-0.11504,-0.39661,0.47141,-32.757,-4.963,0.22,98.638,0.298,-2.606,5.0,43.1416,22.9999,120.21971,42.6,NaN,,21.6,,0 / 0,21810,2021-01-13 15:18:37:855
0.75684,-0.05545,7.91142,0.65678,1.17909,9.71333,1.02548,0.17415,0.34929,-34.248,-4.556,1.536,98.233,-6.906,-3.868,5.0,43.1416,22.9999,120.21971,42.6,NaN,,21.6,,0 / 0,21910,2021-01-13 15:18:37:955
-0.25148,1.69296,3.65776,0.49407,1.51567,9.67621,0.64102,0.36109,0.22772,-33.171,-3.542,1.041,96.61,-6.906,-3.868,5.0,43.1416,22.9999,120.21971,42.6,NaN,,21.6,,0 / 0,22009,2021-01-13 15:18:38:054
-0.28022,1.11335,4.81459,0.33653,2.11588,9.56975,-0.38023,-0.21165,-0.13375,-35.233,-3.386,0.522,94.747,-11.526,-1.898,5.0,42.5566,22.9999,120.21971,42.6,NaN,,21.6,,0 / 0,22109,2021-01-13 15:18:38:154
1.09455,0.90498,11.54716,0.67803,1.04856,9.72683,-1.11434,-0.38279,-0.03268,-33.752,-1.896,1.957,93.372,-9.599,-3.013,5.0,42.5566,22.9999,120.21971,42.6,NaN,,21.6,,0 / 0,22209,2021-01-13 15:18:38:254
0.11257,1.62351,12.85487,0.80296,0.57076,9.75704,-0.61726,0.21996,-0.04711,-33.747,-2.108,2.058,93.275,-6.138,-3.988,5.0,42.5566,22.9999,120.21971,42.6,NaN,,21.6,,0 / 0,22310,2021-01-13 15:18:38:355
-3.56388,-0.70451,11.53518,0.57577,-1.7E-4,9.78973,-0.45778,0.12286,-0.01802,-34.95,0.719,0.366,88.265,-1.462,-3.731,5.0,42.1298,22.9999,120.21971,42.6,NaN,,21.6,,0 / 0,22409,2021-01-13 15:18:38:454
-3.97104,-1.28412,10.91965,0.27942,0.69412,9.77806,0.82856,-0.0781,1.25774,-34.768,3.5,-0.543,83.26,-4.059,-1.637,5.0,42.1298,22.9999,120.21971,42.6,NaN,,21.6,,0 / 0,22510,2021-01-13 15:18:38:555
-2.1915,-1.50207,7.41325,0.49947,1.0328,9.73932,0.86232,-0.25298,2.06522,-35.233,7.167,-1.329,78.481,-4.059,-1.637,5.0,42.1298,22.9999,120.21971,42.6,NaN,,21.6,,0 / 0,22609,2021-01-13 15:18:38:654
-1.50651,-2.17988,9.89455,0.46308,1.54765,9.67268,0.02336,0.63896,2.96203,-32.763,12.186,-3.524,68.7,-8.657,-3.336,5.0,42.1298,22.9999,120.21971,42.6,NaN,,21.6,,0 / 0,22710,2021-01-13 15:18:38:755
0.42632,-1.88529,11.37471,0.11048,1.10914,9.7431,-0.15233,0.66449,2.99258,-25.78,23.984,-6.275,46.169,-7.981,-2.098,5.0,41.3947,22.9999,120.21971,42.6,NaN,,21.6,,0 / 0,22809,2021-01-13 15:18:38:854
1.01791,-0.92725,10.261,-0.15286,0.91514,9.76266,-0.0867,0.80024,2.67838,-21.541,27.68,-5.597,37.552,-6.494,-0.65,5.0,41.3947,22.9999,120.21971,42.6,NaN,,21.6,,0 / 0,22909,2021-01-13 15:18:38:954
1.27897,-0.1752,9.37961,-0.70627,0.93074,9.7368,-0.00627,0.68688,2.26953,-14.376,35.071,-8.549,22.036,-5.134,2.72,5.0,41.3947,22.9999,120.21971,42.6,NaN,,21.6,,0 / 0,23010,2021-01-13 15:18:39:055
1.32448,1.11814,7.33421,-0.90667,1.00569,9.71272,-0.18124,0.36073,1.11134,-9.456,35.073,-8.119,15.157,-5.863,4.75,5.0,41.2573,22.9999,120.21971,42.6,NaN,,21.6,,0 / 0,23109,2021-01-13 15:18:39:154
0.59158,-0.34046,11.18789,-0.9794,0.78618,9.7259,-0.56972,0.2578,0.5892,-4.394,34.818,-5.996,7.311,-5.886,5.333,5.0,41.2573,22.9999,120.21971,42.6,NaN,,21.6,,0 / 0,23209,2021-01-13 15:18:39:254
-0.28981,0.56009,12.79499,-0.87493,-0.18743,9.76574,-0.43595,-0.33941,0.29762,-4.635,35.595,-5.879,8.778,-2.527,5.905,5.0,41.2573,22.9999,120.21971,42.6,NaN,,21.6,,0 / 0,23309,2021-01-13 15:18:39:354
-1.14964,0.84989,8.95328,-0.49523,0.14312,9.79309,0.26104,-0.31598,0.23988,-3.599,36.84,-4.294,6.515,0.79,3.23,5.0,40.8407,22.9999,120.21971,42.6,NaN,,21.6,,0 / 0,23409,2021-01-13 15:18:39:454
-0.85744,1.31933,7.68868,-0.33261,0.73505,9.77341,0.57918,-0.0845,0.2327,-3.368,35.844,-5.999,5.224,-0.836,2.895,5.0,40.8407,22.9999,120.21971,42.6,NaN,,21.6,,0 / 0,23509,2021-01-13 15:18:39:554
-0.78559,1.9205,7.94735,-0.26026,1.10722,9.74047,0.08825,-0.06429,0.17223,-3.544,34.84,-8.946,6.838,-6.164,1.84,5.0,40.8407,22.9999,120.21971,42.6,NaN,,21.6,,0 / 0,23609,2021-01-13 15:18:39:654
-0.49578,2.48573,7.3366,-0.56154,1.34337,9.69796,0.02312,0.25692,0.2633,-1.803,34.948,-8.856,3.792,-7.297,2.406,5.0,41.8548,22.9999,120.21971,42.6,NaN,,21.6,,0 / 0,23709,2021-01-13 15:18:39:754
0.36884,2.34682,8.83353,-0.60884,1.30474,9.70038,-0.02833,0.01956,0.11575,-1.256,34.852,-9.511,2.505,-7.873,3.314,5.0,41.8548,22.9999,120.21971,42.6,NaN,,21.6,,0 / 0,23809,2021-01-13 15:18:39:854
0.41435,1.99953,10.70169,-0.5527,1.00314,9.73954,-0.26502,-0.13039,-0.25547,-0.474,33.891,-9.515,0.857,-7.719,3.002,5.0,41.8548,22.9999,120.21971,42.6,NaN,,21.6,,0 / 0,23909,2021-01-13 15:18:39:954
0.03353,0.69661,12.75188,-0.13083,1.00736,9.7539,0.0079,-0.4514,-0.49926,-1.269,35.733,-7.763,1.99,-5.626,1.95,5.0,42.0351,22.9999,120.21971,42.6,NaN,,21.6,,0 / 0,24010,2021-01-13 15:18:40:055
0.14131,-0.43866,13.06324,-0.02793,0.86895,9.76804,-0.01363,0.03631,-0.20596,-2.353,33.53,-7.363,3.469,-5.896,0.768,5.0,42.0351,22.9999,120.21971,42.6,NaN,,21.6,,0 / 0,24109,2021-01-13 15:18:40:154
0.74247,0.39483,9.83707,-0.02777,1.26124,9.72517,0.73355,-0.05511,-0.12264,-4.489,33.789,-9.258,6.671,-5.032,0.34,5.0,42.0351,22.9999,120.21971,42.6,NaN,,21.6,,0 / 0,24208,2021-01-13 15:18:40:253
0.00718,1.70973,6.90789,-0.01187,1.65454,9.66606,0.66297,0.01708,-0.39194,-3.921,33.048,-10.972,6.658,-9.713,0.07,5.0,42.0351,22.9999,120.21971,42.6,NaN,,21.6,,0 / 0,24309,2021-01-13 15:18:40:354
-0.67781,2.25341,5.0972,-0.19301,2.35507,9.51771,0.42992,0.23814,-0.34814,-3.967,31.266,-12.049,7.036,-12.063,0.241,5.0,41.9942,22.9999,120.21971,42.6,NaN,,21.6,,0 / 0,24409,2021-01-13 15:18:40:454
-0.09341,2.35161,6.56778,-0.4216,2.39239,9.50101,-0.2432,-0.03684,0.12083,-6.064,30.946,-12.871,11.132,-14.458,2.371,5.0,41.9942,22.9999,120.21971,42.6,NaN,,21.6,,0 / 0,24509,2021-01-13 15:18:40:554
-0.23711,2.28215,10.53164,-0.22889,1.66243,9.662,-0.82568,-0.20602,0.27787,-5.373,30.223,-12.278,9.649,-12.971,2.026,5.0,41.9942,22.9999,120.21971,42.6,NaN,,21.6,,0 / 0,24609,2021-01-13 15:18:40:654
0.36645,1.08222,14.91464,-0.21039,1.19867,9.73084,-1.15083,-0.23792,0.16227,-4.394,31.924,-11.387,7.271,-9.76,1.357,5.0,41.7044,22.9999,120.21971,42.6,NaN,,21.6,,0 / 0,24710,2021-01-13 15:18:40:755
0.16526,0.36848,10.11729,0.08087,0.19533,9.80437,-0.51905,-0.17844,0.21425,-3.521,32.512,-6.087,6.91,-3.081,0.312,5.0,41.7044,22.9999,120.21971,42.6,NaN,,21.6,,0 / 0,24809,2021-01-13 15:18:40:854
0.08862,0.41399,9.06106,0.18603,1.30952,9.71704,0.80166,-0.1191,0.08995,-1.004,33.165,-7.425,1.648,-4.175,-0.312,5.0,41.7044,22.9999,120.21971,42.6,NaN,,21.6,,0 / 0,24909,2021-01-13 15:18:40:954
0.194,1.07503,6.43126,0.1525,1.54125,9.68358,0.45623,0.03549,0.09132,-3.318,30.529,-9.403,5.06,-7.674,-1.097,5.0,42.5229,22.9999,120.21971,42.6,NaN,,21.6,,0 / 0,25009,2021-01-13 15:18:41:054
0.15568,2.32766,4.33557,-0.03315,2.19982,9.55668,0.58064,0.19724,-0.05091,-0.298,30.528,-10.307,359.781,-11.126,-0.709,5.0,42.5229,22.9999,120.21971,42.6,NaN,,21.6,,0 / 0,25109,2021-01-13 15:18:41:154
-0.33292,1.95642,8.67066,-0.02201,2.22088,9.55184,-0.22684,-0.16231,-0.09246,-1.197,29.7,-11.454,1.94,-14.831,0.404,5.0,42.5229,22.9999,120.21971,42.6,NaN,,21.6,,0 / 0,25209,2021-01-13 15:18:41:254
0.4886,1.37442,11.71242,0.00848,1.91617,9.61762,-0.76669,-0.23069,-0.13102,-1.183,30.538,-9.935,1.805,-13.089,0.132,5.0,41.7181,22.9999,120.21971,42.6,NaN,,21.6,,0 / 0,25309,2021-01-13 15:18:41:354
1.76278,0.01162,12.55549,0.2252,0.97514,9.75545,-0.81935,-0.18635,0.01331,-0.792,31.624,-7.522,1.577,-8.646,-0.686,5.0,41.7181,22.9999,120.21971,42.6,NaN,,21.6,,0 / 0,25409,2021-01-13 15:18:41:454
1.67656,0.34214,10.9891,0.22529,0.8045,9.771,0.39393,0.09497,-0.18062,-1.802,31.903,-5.841,3.165,-4.339,-1.996,5.0,41.7181,22.9999,120.21971,42.6,NaN,,21.6,,0 / 0,25509,2021-01-13 15:18:41:554
0.87899,-0.18478,10.95318,0.30356,1.15105,9.73413,0.45753,-0.03777,-0.61587,-2.065,32.516,-7.037,3.144,-4.706,-1.321,5.0,41.7181,22.9999,120.21971,42.6,NaN,,21.6,,0 / 0,25608,2021-01-13 15:18:41:653
0.10538,2.21749,5.14511,0.02009,1.81116,9.63793,1.05256,0.0254,-0.64555,-4.254,30.997,-9.468,6.928,-7.734,-0.757,5.0,42.6687,22.9999,120.21971,42.6,NaN,,21.6,,0 / 0,25709,2021-01-13 15:18:41:754
-0.75924,2.90248,6.20852,-0.24422,2.51721,9.47494,0.45187,0.15707,-0.51597,-5.755,31.251,-11.382,10.607,-13.954,0.668,5.0,42.6687,22.9999,120.21971,42.6,NaN,,21.6,,0 / 0,25809,2021-01-13 15:18:41:854
-0.11017,2.8929,6.92944,-0.44818,2.4045,9.49673,0.00462,0.12802,0.07475,-5.028,31.314,-12.034,9.135,-14.873,1.477,5.0,42.6687,22.9999,120.21971,42.6,NaN,,21.6,,0 / 0,25909,2021-01-13 15:18:41:954
-0.16766,2.71327,8.49343,-0.35894,2.37327,9.50837,-0.18764,-0.19023,0.30091,-3.008,31.229,-11.285,6.277,-14.432,3.143,5.0,43.9077,22.9999,120.21971,42.6,NaN,,21.6,,0 / 0,26009,2021-01-13 15:18:42:054
2.81422,0.34453,14.31587,0.07315,1.41219,9.70416,-0.99757,-0.55032,-0.00805,-2.425,33.019,-9.314,3.736,-12.0,1.464,5.0,43.9077,22.9999,120.21971,42.6,NaN,,21.6,,0 / 0,26109,2021-01-13 15:18:42:154
2.67291,0.09544,12.96265,0.29528,0.96461,9.75463,-0.51999,-0.02443,-0.24738,-4.09,34.78,-5.365,6.394,-8.28,-0.432,5.0,43.9077,22.9999,120.21971,42.6,NaN,,21.6,,0 / 0,26209,2021-01-13 15:18:42:254
3.33156,-0.00754,9.44906,0.20838,1.13609,9.73839,0.52595,0.1412,-1.4449,-5.082,33.953,-5.353,8.102,-5.393,-1.279,5.0,42.0444,22.9999,120.21971,42.6,NaN,,21.6,,0 / 0,26309,2021-01-13 15:18:42:354
2.25377,0.0691,7.85634,-0.30361,1.8227,9.63099,0.68367,0.34802,-1.88033,-10.204,33.747,-7.447,16.125,-8.435,0.157,5.0,42.0444,22.9999,120.21971,42.6,NaN,,21.6,,0 / 0,26409,2021-01-13 15:18:42:454
0.68739,-1.38471,8.39044,-0.33466,2.06763,9.58036,0.14033,-0.46168,-2.69276,-14.574,30.455,-10.544,26.012,-12.172,2.001,5.0,42.0444,22.9999,120.21971,42.6,NaN,,21.6,,0 / 0,26509,2021-01-13 15:18:42:554
-0.55087,-1.26975,7.87071,-0.35171,1.96169,9.602,0.05873,-0.64707,-2.98775,-20.785,25.423,-11.46,38.858,-11.984,2.202,5.0,41.8613,22.9999,120.21971,42.6,NaN,,21.6,,0 / 0,26609,2021-01-13 15:18:42:654
-2.80943,-0.57997,9.30057,-0.1775,1.3763,9.70797,-0.31609,-0.47403,-2.82725,-24.497,22.885,-10.136,44.951,-9.871,1.375,5.0,41.8613,22.9999,120.21971,42.6,NaN,,21.6,,0 / 0,26709,2021-01-13 15:18:42:754
-1.49693,-0.57997,15.09667,-0.18567,1.13598,9.73886,-0.66141,-0.51084,-2.53499,-30.317,12.1,-7.76,66.787,-8.068,1.047,5.0,41.8613,22.9999,120.21971,42.6,NaN,,21.6,,0 / 0,26810,2021-01-13 15:18:42:855
-1.17838,1.8223,13.03929,-0.02747,0.15789,9.80534,0.29048,-0.31325,-1.11993,-31.59,6.038,-5.92,79.223,-0.922,0.161,5.0,41.8613,22.9999,120.21971,42.6,NaN,,21.6,,0 / 0,26910,2021-01-13 15:18:42:955
0.41674,2.44262,8.38086,-0.01868,1.07431,9.74761,0.90202,0.05509,-0.43983,-31.048,4.162,-6.551,82.08,-2.518,-0.219,5.0,42.2854,22.9999,120.21971,42.6,NaN,,21.6,,0 / 0,27010,2021-01-13 15:18:43:055
0.54368,2.23425,7.18092,-0.05062,1.48966,9.69272,0.56104,0.18439,-0.24974,-32.105,0.795,-7.124,86.864,-6.289,0.11,5.0,42.2854,22.9999,120.21971,42.6,NaN,,21.6,,0 / 0,27109,2021-01-13 15:18:43:154
-0.51015,2.50729,6.60132,-0.30479,2.0792,9.57885,0.4005,0.2128,-0.11481,-31.876,1.617,-6.825,84.395,-10.68,1.062,5.0,42.2854,22.9999,120.21971,42.6,NaN,,21.6,,0 / 0,27210,2021-01-13 15:18:43:255
-0.6826,2.43544,6.86717,-0.32524,2.04515,9.58551,-0.23568,-0.03134,0.14949,-32.379,-0.101,-8.534,87.094,-12.364,2.373,5.0,42.44,22.9999,120.21971,42.6,NaN,,21.6,,0 / 0,27309,2021-01-13 15:18:43:354
-0.95803,2.0139,10.54841,-0.45885,1.79095,9.6308,-0.69137,0.17198,0.24428,-31.409,1.477,-7.818,85.561,-12.037,1.943,5.0,42.44,22.9999,120.21971,42.6,NaN,,21.6,,0 / 0,27410,2021-01-13 15:18:43:455
0.02874,1.57321,14.52903,-0.40275,0.92213,9.75489,-0.77923,0.03864,0.46574,-31.783,2.333,-9.252,84.708,-7.626,2.414,5.0,42.44,22.9999,120.21971,42.6,NaN,,21.6,,0 / 0,27508,2021-01-13 15:18:43:553
0.89815,-0.58715,15.8583,-0.07866,0.23565,9.8035,-0.59059,-0.39453,0.40599,-32.126,6.998,-8.802,77.094,-3.014,2.075,5.0,42.0679,22.9999,120.21971,42.6,NaN,,21.6,,0 / 0,27609,2021-01-13 15:18:43:654
-0.15089,0.77804,8.66108,0.01695,0.27507,9.80278,1.41144,0.15613,0.54115,-32.197,7.627,-9.067,75.645,-1.377,0.46,5.0,42.0679,22.9999,120.21971,42.6,NaN,,21.6,,0 / 0,27709,2021-01-13 15:18:43:754
-0.37603,1.23071,7.16655,-0.10116,1.5984,9.67498,0.8428,0.11765,0.25165,-32.308,8.398,-9.97,74.204,-6.519,0.277,5.0,42.0679,22.9999,120.21971,42.6,NaN,,21.6,,0 / 0,27809,2021-01-13 15:18:43:854
-0.95564,2.04504,5.73669,-0.13139,2.45844,9.49259,0.56081,0.00145,-0.07219,-33.782,7.704,-12.664,73.02,-12.033,0.792,5.0,41.7778,22.9999,120.21971,42.6,NaN,,21.6,,0 / 0,27910,2021-01-13 15:18:43:955
-0.25388,1.83188,8.46708,-0.21999,2.61984,9.44767,0.08885,0.095,-0.02741,-31.598,7.395,-15.545,71.667,-14.518,0.793,5.0,41.7778,22.9999,120.21971,42.6,NaN,,21.6,,0 / 0,28009,2021-01-13 15:18:44:054
-0.25627,2.47855,9.41793,-0.13996,2.24207,9.54589,-0.47625,-0.37797,-0.05804,-31.999,6.249,-14.312,74.153,-14.531,1.137,5.0,41.7778,22.9999,120.21971,42.6,NaN,,21.6,,0 / 0,28108,2021-01-13 15:18:44:153
-0.11017,1.29777,15.73855,0.02336,1.17451,9.73604,-1.09616,0.02593,-0.03609,-34.69,9.154,-14.24,71.759,-10.683,-0.492,5.0,41.7778,22.9999,120.21971,42.6,NaN,,21.6,,0 / 0,28209,2021-01-13 15:18:44:254
1.3149,-0.58476,16.1026,0.20869,0.65971,9.78221,-0.4465,-0.02544,-1.8E-4,-33.31,11.827,-13.501,68.374,-3.857,-1.222,5.0,41.6275,22.9999,120.21971,42.6,NaN,,21.6,,0 / 0,28310,2021-01-13 15:18:44:355
0.69218,0.81157,8.75689,0.24335,0.9788,9.75465,1.09269,-0.02698,-0.13995,-34.89,10.55,-15.593,71.391,-2.263,-1.344,5.0,41.6275,22.9999,120.21971,42.6,NaN,,21.6,,0 / 0,28409,2021-01-13 15:18:44:454
0.52692,1.26903,7.84676,0.18069,1.81854,9.63487,0.54529,0.13389,-0.4696,-34.328,6.382,-15.995,75.076,-10.687,-1.074,5.0,41.6275,22.9999,120.21971,42.6,NaN,,21.6,,0 / 0,28511,2021-01-13 15:18:44:556
-0.58919,2.21509,4.40263,0.01026,2.20413,9.55574,0.59675,0.18979,-0.53441,-33.12,4.829,-16.055,76.259,-10.687,-1.074,5.0,41.3981,22.9999,120.21971,42.6,NaN,,21.6,,0 / 0,28609,2021-01-13 15:18:44:654
-0.91013,2.28455,6.54383,-0.32426,2.63044,9.44172,-0.30591,-0.0893,0.02332,-33.866,3.017,-15.398,79.239,-14.709,1.244,5.0,41.3981,22.9999,120.21971,42.6,NaN,,21.6,,0 / 0,28709,2021-01-13 15:18:44:754
0.25388,2.31568,11.85133,-0.09338,1.99662,9.60079,-0.61961,-0.1441,0.41513,-32.579,5.069,-17.991,74.932,-14.164,1.641,5.0,41.3981,22.9999,120.21971,42.6,NaN,,21.6,,0 / 0,28809,2021-01-13 15:18:44:854
-0.15808,1.11335,15.05116,-0.06031,1.6592,9.66508,-1.00112,-0.14552,0.32385,-33.459,5.6,-18.874,73.742,-11.747,0.557,5.0,41.7991,22.9999,120.21971,42.6,NaN,,21.6,,0 / 0,28909,2021-01-13 15:18:44:954
-0.79517,0.59602,11.24538,0.04236,0.73841,9.77872,-0.457,0.08763,0.46198,-35.081,11.069,-21.073,69.173,-6.299,-0.37,5.0,41.7991,22.9999,120.21971,42.6,NaN,,21.6,,0 / 0,29009,2021-01-13 15:18:45:054
-0.31615,0.55051,10.61307,0.1704,1.70481,9.65583,0.85997,-0.05423,0.13207,-33.158,11.441,-21.325,67.688,-6.917,-0.423,5.0,41.7991,22.9999,120.21971,42.6,NaN,,21.6,,0 / 0,29109,2021-01-13 15:18:45:154
-0.51973,2.09773,4.79063,0.11109,2.20446,9.55502,1.05859,0.20536,0.18251,-34.506,7.013,-21.211,72.901,-10.011,-1.011,5.0,42.3306,22.9999,120.21971,42.6,NaN,,21.6,,0 / 0,29209,2021-01-13 15:18:45:254
-0.9724,3.06295,4.57987,-0.34625,3.26273,9.24149,0.21595,0.48729,0.07195,-32.786,5.273,-21.751,71.385,-16.972,0.3,5.0,42.3306,22.9999,120.21971,42.6,NaN,,21.6,,0 / 0,29309,2021-01-13 15:18:45:354
-1.13048,2.90727,8.8479,-0.33044,2.99174,9.33331,-0.37987,-0.23716,-0.13198,-31.588,3.256,-24.274,72.869,-19.573,3.184,5.0,42.3306,22.9999,120.21971,42.6,NaN,,21.6,,0 / 0,29409,2021-01-13 15:18:45:454
-1.23826,1.62111,13.5231,-0.26422,2.48059,9.48405,-1.39916,-0.30247,-0.30246,-33.576,5.63,-22.791,70.444,-17.763,2.028,5.0,42.3306,22.9999,120.21971,42.6,NaN,,21.6,,0 / 0,29509,2021-01-13 15:18:45:554
1.64302,-0.5177,17.64503,-0.05445,0.90607,9.76455,-1.29702,-0.15293,-0.01695,-34.181,8.049,-23.354,71.121,-9.812,0.74,5.0,43.0515,22.9999,120.21971,42.6,NaN,,21.6,,0 / 0,29609,2021-01-13 15:18:45:654
1.32208,0.90977,9.59277,0.22707,1.2477,9.7243,1.39201,-0.11283,-0.25652,-33.937,10.842,-23.893,69.911,-3.1,-0.822,5.0,43.0515,22.9999,120.21971,42.6,NaN,,21.6,,0 / 0,29709,2021-01-13 15:18:45:754
0.03832,1.47741,7.38211,0.20483,1.92159,9.61436,0.90009,0.06816,-0.53994,-33.77,5.333,-22.975,76.574,-7.31,-1.338,5.0,43.0515,22.9999,120.21971,42.6,NaN,,21.6,,0 / 0,29810,2021-01-13 15:18:45:855
-0.55805,2.3061,4.54634,-0.1471,2.64377,9.44242,0.47567,0.13012,-0.3962,-34.54,2.879,-23.867,76.326,-13.281,-0.339,5.0,42.1925,22.9999,120.21971,42.6,NaN,,21.6,,0 / 0,29909,2021-01-13 15:18:45:954
-0.32573,2.32047,5.17385,-0.25902,2.77315,9.40282,-0.17826,0.07684,-0.13428,-32.692,-2.2,-23.493,82.668,-16.426,1.578,5.0,42.1925,22.9999,120.21971,42.6,NaN,,21.6,,0 / 0,30009,2021-01-13 15:18:46:054
0.90055,2.29173,11.73636,-0.22486,2.27566,9.53631,-0.94424,0.02108,0.5775,-33.741,-1.533,-25.488,82.574,-15.722,1.914,5.0,42.1925,22.9999,120.21971,42.6,NaN,,21.6,,0 / 0,30109,2021-01-13 15:18:46:154
0.47423,1.4295,14.61046,-0.17151,1.38378,9.70701,-0.62928,0.07642,0.44755,-33.956,4.787,-26.852,74.434,-10.228,1.034,5.0,43.1024,22.9999,120.21971,42.6,NaN,,21.6,,0 / 0,30209,2021-01-13 15:18:46:254
-0.22514,0.51458,14.15061,0.10411,0.79444,9.77386,0.13424,-0.1351,0.18295,-34.193,8.964,-26.488,71.222,-5.811,0.121,5.0,43.1024,22.9999,120.21971,42.6,NaN,,21.6,,0 / 0,30309,2021-01-13 15:18:46:354
-0.3425,0.40441,10.01191,0.20723,1.33741,9.71282,1.05511,-0.22134,-0.00831,-33.953,3.932,-25.961,79.71,-4.647,-0.61,5.0,43.1024,22.9999,120.21971,42.6,NaN,,21.6,,0 / 0,30409,2021-01-13 15:18:46:454
-0.194,0.96965,6.74741,0.19617,2.02974,9.59229,0.78667,0.33385,0.0721,-34.908,5.058,-25.598,73.994,-10.479,-1.626,5.0,43.1024,22.9999,120.21971,42.6,NaN,,21.6,,0 / 0,30509,2021-01-13 15:18:46:554
-0.80235,2.56238,5.16666,-0.11333,2.9554,9.35004,0.85446,0.23393,0.06865,-34.014,1.277,-27.706,76.358,-15.16,0.132,5.0,42.9169,22.9999,120.21971,42.6,NaN,,21.6,,0 / 0,30609,2021-01-13 15:18:46:654
-0.74008,1.98516,9.58079,-0.21509,2.76412,9.40658,-0.62154,-0.24875,-0.12214,-34.225,2.053,-30.1,72.516,-17.54,0.694,5.0,42.9169,22.9999,120.21971,42.6,NaN,,21.6,,0 / 0,30709,2021-01-13 15:18:46:754
-0.39758,1.8702,11.78906,0.08692,2.18198,9.56043,-0.5275,-0.33309,-0.07413,-33.831,2.842,-28.36,74.184,-14.196,0.507,5.0,42.9169,22.9999,120.21971,42.6,NaN,,21.6,,0 / 0,30809,2021-01-13 15:18:46:854
0.69457,-0.08419,16.09781,0.1418,0.69978,9.78062,-1.16217,-0.06015,0.0669,-34.803,5.218,-27.542,75.151,-8.635,-0.595,5.0,42.35,22.9999,120.21971,42.6,NaN,,21.6,,0 / 0,30909,2021-01-13 15:18:46:954
1.26939,0.19364,10.22268,0.23359,0.4424,9.79388,0.2349,-0.17876,0.08548,-34.403,8.962,-27.454,71.97,-4.092,-0.831,5.0,42.35,22.9999,120.21971,42.6,NaN,,21.6,,0 / 0,31009,2021-01-13 15:18:47:054
0.42153,1.06785,8.20841,0.33865,1.51209,9.68345,0.68977,0.21102,-0.19843,-33.951,7.126,-27.63,73.309,-5.734,-2.078,5.0,42.35,22.9999,120.21971,42.6,NaN,,21.6,,0 / 0,31109,2021-01-13 15:18:47:154
-0.47423,2.39712,6.11751,-0.00712,2.20565,9.55539,0.58349,0.26367,-0.28515,-34.299,1.968,-30.11,76.894,-10.98,-1.013,5.0,43.1008,22.9999,120.21971,42.6,NaN,,21.6,,0 / 0,31209,2021-01-13 15:18:47:254
-0.40956,2.7468,4.29246,-0.13666,2.57253,9.46223,0.13348,0.0661,-0.29105,-33.164,0.955,-30.381,76.848,-12.998,0.043,5.0,43.1008,22.9999,120.21971,42.6,NaN,,21.6,,0 / 0,31309,2021-01-13 15:18:47:354
-0.26825,1.91571,10.24663,-0.29753,2.33593,9.51973,-0.65465,0.04369,-0.12924,-33.737,-1.356,-29.689,78.617,-15.807,1.365,5.0,43.1008,22.9999,120.21971,42.6,NaN,,21.6,,0 / 0,31410,2021-01-13 15:18:47:455
-0.02874,1.90133,12.67045,-0.02843,1.37848,9.70924,-1.01664,-0.0952,0.3753,-34.619,1.454,-30.718,79.023,-11.17,0.885,5.0,44.0063,22.9999,120.21971,42.6,NaN,,21.6,,0 / 0,31509,2021-01-13 15:18:47:554
0.61314,0.4092,13.90631,0.07427,0.67338,9.78322,-1.12209,-0.24754,0.16164,-35.265,7.814,-30.779,70.736,-8.081,0.168,5.0,44.0063,22.9999,120.21971,42.6,NaN,,21.6,,0 / 0,31609,2021-01-13 15:18:47:654
-0.68499,0.85947,10.04065,0.22559,1.02163,9.75068,1.04465,-0.20633,0.13351,-34.895,9.689,-30.031,71.888,-2.318,-1.226,5.0,44.0063,22.9999,120.21971,42.6,NaN,,21.6,,0 / 0,31709,2021-01-13 15:18:47:754
0.31136,0.75888,8.52696,0.3715,1.70944,9.64936,0.46702,-0.06495,0.09522,-35.632,4.222,-29.793,75.931,-8.808,-2.077,5.0,45.0468,22.9999,120.21971,42.6,NaN,,21.6,,0 / 0,31810,2021-01-13 15:18:47:855
-0.55087,2.36119,5.00619,0.24652,2.15022,9.56484,0.86515,0.29502,0.05044,-35.206,3.536,-30.356,74.469,-10.039,-2.205,5.0,45.0468,22.9999,120.21971,42.6,NaN,,21.6,,0 / 0,31908,2021-01-13 15:18:47:953
0.43351,2.50969,6.0744,-0.13618,2.79492,9.39895,0.15355,0.35364,0.00973,-33.632,1.975,-30.994,72.899,-15.667,-0.5,5.0,45.0468,22.9999,120.21971,42.6,NaN,,21.6,,0 / 0,32009,2021-01-13 15:18:48:054
0.28022,1.89654,9.11375,0.04705,2.28936,9.53557,-0.7777,-0.29708,-0.3088,-32.964,-0.463,-31.433,75.777,-16.005,0.617,5.0,45.0468,22.9999,120.21971,42.6,NaN,,21.6,,0 / 0,32109,2021-01-13 15:18:48:154
0.69697,1.18281,12.88121,0.23463,1.81755,9.63389,-0.89451,-0.28981,-0.26714,-35.15,3.196,-31.62,73.338,-13.5,-0.283,5.0,43.1133,22.9999,120.21971,42.6,NaN,,21.6,,0 / 0,32209,2021-01-13 15:18:48:254
1.09216,-0.63026,16.03075,0.3507,0.77371,9.76979,-0.46609,-0.00367,-0.05576,-36.373,4.607,-31.769,74.9,-7.904,-1.512,5.0,43.1133,22.9999,120.21971,42.6,NaN,,21.6,,0 / 0,32310,2021-01-13 15:18:48:355
0.4862,1.19239,9.12334,0.46451,1.46264,9.68583,1.10556,-0.18992,-0.23571,-36.262,4.557,-32.071,77.61,-4.585,-2.098,5.0,43.1133,22.9999,120.21971,42.6,NaN,,21.6,,0 / 0,32410,2021-01-13 15:18:48:455
-0.03114,2.09534,6.5606,0.31947,1.98343,9.59866,0.85732,0.21143,-0.36191,-36.713,2.37,-29.337,79.547,-8.578,-2.746,5.0,43.518,22.9999,120.21971,42.6,NaN,,21.6,,0 / 0,32510,2021-01-13 15:18:48:555
-0.40477,3.12762,4.84093,0.01499,2.86305,9.3794,0.58563,0.15443,-0.30101,-34.796,-4.752,-30.31,85.247,-14.612,-0.915,5.0,43.518,22.9999,120.21971,42.6,NaN,,21.6,,0 / 0,32609,2021-01-13 15:18:48:654
-0.51015,2.53843,6.22529,-0.23146,2.61376,9.44908,-0.37706,-0.05069,0.03595,-34.428,-6.316,-31.166,84.882,-16.878,0.964,5.0,43.518,22.9999,120.21971,42.6,NaN,,21.6,,0 / 0,32709,2021-01-13 15:18:48:754
0.00718,2.65099,12.00941,-0.05056,2.32573,9.52674,-0.78612,-0.06416,0.45243,-35.173,-2.157,-32.817,79.497,-15.458,1.403,5.0,43.341,22.9999,120.21971,42.6,NaN,,21.6,,0 / 0,32810,2021-01-13 15:18:48:855
0.25627,-0.10095,14.30868,-0.05435,1.21288,9.73121,-0.87685,-0.18361,0.35784,-35.153,5.699,-33.952,73.933,-7.105,0.32,5.0,43.341,22.9999,120.21971,42.6,NaN,,21.6,,0 / 0,32912,2021-01-13 15:18:48:957
0.04551,0.51937,11.48009,0.1602,0.97941,9.75631,0.0984,-0.1313,0.37031,-35.982,5.051,-34.769,77.437,-4.882,-0.328,5.0,43.341,22.9999,120.21971,42.6,NaN,,21.6,,0 / 0,33009,2021-01-13 15:18:49:054
0.5844,0.54093,9.54487,0.25202,1.26247,9.72178,0.73828,0.02715,0.05631,-35.761,3.71,-32.724,78.312,-5.732,-0.941,5.0,43.7816,22.9999,120.21971,42.6,NaN,,21.6,,0 / 0,33109,2021-01-13 15:18:49:154
-0.27543,2.43544,4.40024,0.15192,2.26892,9.53936,1.07944,0.21322,0.01243,-35.748,0.621,-33.013,79.176,-9.751,-1.421,5.0,43.7816,22.9999,120.21971,42.6,NaN,,21.6,,0 / 0,33209,2021-01-13 15:18:49:254
-0.41435,2.89529,6.19894,-0.22005,2.79171,9.39831,-0.21826,0.13689,-0.15603,-34.595,-1.604,-34.587,77.529,-16.248,0.432,5.0,43.7816,22.9999,120.21971,42.6,NaN,,21.6,,0 / 0,33309,2021-01-13 15:18:49:354
-0.68739,1.58758,11.4274,-0.16455,2.57136,9.46211,-0.5724,-0.41192,-0.39957,-33.99,-1.936,-33.479,78.223,-16.539,1.341,5.0,43.7816,22.9999,120.21971,42.6,NaN,,21.6,,0 / 0,33409,2021-01-13 15:18:49:454
-0.41435,1.48699,11.36273,0.01387,1.75326,9.64864,-0.37098,-0.22413,-0.28035,-35.478,-0.306,-32.982,78.539,-12.392,-0.057,5.0,43.27,22.9999,120.21971,42.6,NaN,,21.6,,0 / 0,33509,2021-01-13 15:18:49:554
0.91253,0.12419,12.77583,0.15374,1.11865,9.74143,-0.64446,-0.10915,-0.16633,-35.765,0.271,-32.819,81.496,-9.137,-0.766,5.0,43.27,22.9999,120.21971,42.6,NaN,,21.6,,0 / 0,33609,2021-01-13 15:18:49:654
0.50297,0.14814,12.44292,0.20047,1.02102,9.75129,0.04679,-0.15368,-0.26554,-36.367,1.175,-33.0,82.259,-6.55,-0.904,5.0,43.27,22.9999,120.21971,42.6,NaN,,21.6,,0 / 0,33709,2021-01-13 15:18:49:754
-0.3401,2.16719,6.40252,0.14639,1.37876,9.70814,0.71563,0.21495,-0.11204,-36.661,-2.044,-32.059,87.717,-5.933,-1.773,5.0,44.0317,22.9999,120.21971,42.6,NaN,,21.6,,0 / 0,33809,2021-01-13 15:18:49:854
-0.10299,2.58633,6.3163,0.01564,2.14981,9.5681,0.16638,0.25813,0.0203,-36.524,-4.148,-32.554,86.032,-11.102,-0.836,5.0,44.0317,22.9999,120.21971,42.6,NaN,,21.6,,0 / 0,33909,2021-01-13 15:18:49:954
0.27543,2.47855,7.67431,-0.07533,2.1486,9.56809,-0.04749,0.05753,0.09632,-34.397,-5.269,-31.868,86.378,-12.663,-0.094,5.0,44.0317,22.9999,120.21971,42.6,NaN,,21.6,,0 / 0,34009,2021-01-13 15:18:50:054
0.6802,2.75159,10.66577,0.06859,1.94292,9.61201,-0.48169,0.09166,0.41959,-35.013,-4.253,-34.601,84.286,-12.323,0.311,5.0,44.9842,22.9999,120.21971,42.6,NaN,,21.6,,0 / 0,34109,2021-01-13 15:18:50:154
0.4886,0.50021,15.18289,0.01287,1.32969,9.71608,-0.58818,0.12947,0.35213,-35.877,-2.129,-34.445,84.027,-9.673,-0.15,5.0,44.9842,22.9999,120.21971,42.6,NaN,,21.6,,0 / 0,34209,2021-01-13 15:18:50:254
-0.54368,0.72056,11.70763,0.09469,0.88342,9.76632,0.52172,0.11272,0.26432,-36.043,0.351,-33.977,85.042,-5.168,-0.555,5.0,44.9842,22.9999,120.21971,42.6,NaN,,21.6,,0 / 0,34311,2021-01-13 15:18:50:356
-0.04311,0.25591,10.28495,0.09429,1.54888,9.6831,0.58991,-0.07189,0.03437,-36.56,-0.093,-32.842,83.993,-6.736,-0.166,5.0,45.3425,22.9999,120.21971,42.6,NaN,,21.6,,0 / 0,34409,2021-01-13 15:18:50:454
-0.62033,1.61632,5.56425,-0.0705,2.16933,9.56344,0.86273,0.26963,-0.15815,-36.465,-1.768,-32.485,84.197,-10.06,-0.228,5.0,45.3425,22.9999,120.21971,42.6,NaN,,21.6,,0 / 0,34509,2021-01-13 15:18:50:554
-0.89097,2.56956,5.95464,-0.30304,2.51861,9.47287,0.28517,0.33863,-0.10293,-34.809,-5.663,-31.568,86.617,-14.882,1.832,5.0,45.3425,22.9999,120.21971,42.6,NaN,,21.6,,0 / 0,34609,2021-01-13 15:18:50:654
-0.73289,2.09055,8.46948,-0.4019,2.45756,9.48521,-0.32357,-0.39798,-0.26796,-34.51,-6.855,-32.637,87.876,-15.119,2.998,5.0,45.3425,22.9999,120.21971,42.6,NaN,,21.6,,0 / 0,34709,2021-01-13 15:18:50:754
-0.23232,1.44627,10.92922,-0.18384,1.89311,9.62043,-0.55664,-0.17586,-0.16005,-35.093,-7.12,-31.09,89.97,-13.118,1.424,5.0,44.8055,22.9999,120.21971,42.6,NaN,,21.6,,0 / 0,34809,2021-01-13 15:18:50:854
0.66823,-3.6E-4,13.89912,-0.10105,1.49955,9.6908,-0.67509,-0.073,-0.02655,-33.773,-5.538,-30.816,92.075,-8.796,0.597,5.0,44.8055,22.9999,120.21971,42.6,NaN,,21.6,,0 / 0,34909,2021-01-13 15:18:50:954
0.96282,0.77325,11.73158,-0.05396,1.03804,9.75141,0.07631,-0.02779,0.04698,-34.83,-4.8,-31.748,92.417,-6.288,0.285,5.0,44.8055,22.9999,120.21971,42.6,NaN,,21.6,,0 / 0,35009,2021-01-13 15:18:51:054
0.20358,1.29538,8.7976,-0.12332,1.52796,9.6861,0.54999,0.22249,-0.37415,-36.351,-5.322,-29.978,91.77,-7.361,-0.044,5.0,44.4822,22.9999,120.21971,42.6,NaN,,21.6,,0 / 0,35110,2021-01-13 15:18:51:155
-0.40956,2.4522,5.82291,-0.26345,1.86238,9.62458,0.62084,0.19729,-0.39804,-34.771,-9.643,-28.181,97.464,-10.948,1.568,5.0,44.4822,22.9999,120.21971,42.6,NaN,,21.6,,0 / 0,35212,2021-01-13 15:18:51:257
-0.99396,2.61267,5.15229,-0.63587,2.38533,9.49085,-0.01214,0.15457,-0.04406,-34.439,-12.337,-29.161,98.909,-12.992,2.659,5.0,44.4822,22.9999,120.21971,42.6,NaN,,21.6,,0 / 0,35309,2021-01-13 15:18:51:354
0.13891,2.18874,10.68014,-0.54148,2.16497,9.54935,-0.31993,-0.1212,0.34633,-33.7,-11.292,-28.847,97.028,-13.654,4.118,5.0,43.1766,22.9999,120.21971,42.6,NaN,,21.6,,0 / 0,35409,2021-01-13 15:18:51:454
0.59158,1.39837,12.18904,-0.34892,1.68493,9.65451,-0.88971,-0.07414,0.39515,-35.44,-7.457,-30.303,93.114,-9.893,2.07,5.0,43.1766,22.9999,120.21971,42.6,NaN,,21.6,,0 / 0,35509,2021-01-13 15:18:51:554
-0.62991,-0.42668,13.32431,0.01898,0.71185,9.78076,-0.7264,-0.49943,0.1674,-36.309,-6.329,-29.194,93.931,-7.042,1.687,5.0,43.1766,22.9999,120.21971,42.6,NaN,,21.6,,0 / 0,35609,2021-01-13 15:18:51:654
-0.42632,-0.12969,11.41303,0.36265,0.9579,9.75301,0.36154,-0.18706,0.14923,-36.153,-6.689,-28.914,97.989,-3.883,-1.079,5.0,44.7691,22.9999,120.21971,42.6,NaN,,21.6,,0 / 0,35709,2021-01-13 15:18:51:754
0.15089,0.7014,7.89226,0.3524,1.02417,9.74666,0.25031,0.05537,0.11745,-38.332,-6.797,-26.969,96.471,-5.606,-2.129,5.0,44.7691,22.9999,120.21971,42.6,NaN,,21.6,,0 / 0,35809,2021-01-13 15:18:51:854
-0.24669,2.0666,5.89477,0.07117,1.69042,9.6596,0.68642,0.29707,-0.01155,-37.046,-9.522,-26.574,99.885,-7.389,-1.64,5.0,44.7691,22.9999,120.21971,42.6,NaN,,21.6,,0 / 0,35909,2021-01-13 15:18:51:954
-0.42872,1.85822,6.08398,-0.27792,2.1637,9.56094,0.24399,0.29703,-0.17539,-34.935,-10.674,-25.751,98.684,-12.083,0.532,5.0,44.7691,22.9999,120.21971,42.6,NaN,,21.6,,0 / 0,36009,2021-01-13 15:18:52:054
-0.45028,0.81397,8.92933,-0.09696,1.99447,9.6012,-0.90298,-0.19032,-0.31087,-35.905,-11.771,-25.467,100.531,-11.735,0.579,5.0,44.1501,22.9999,120.21971,42.6,NaN,,21.6,,0 / 0,36109,2021-01-13 15:18:52:154
1.45381,0.16969,14.95535,0.04691,0.49389,9.79409,-1.78144,-0.13761,-0.00355,-35.63,-9.502,-27.037,98.922,-9.018,0.28,5.0,44.1501,22.9999,120.21971,42.6,NaN,,21.6,,0 / 0,36209,2021-01-13 15:18:52:254
-0.37603,-0.6111,11.4753,0.29128,-0.70807,9.77672,0.24894,-0.10685,-0.18378,-37.518,-6.258,-29.722,100.951,2.446,-0.597,5.0,44.1501,22.9999,120.21971,42.6,NaN,,21.6,,0 / 0,36309,2021-01-13 15:18:52:354
-0.08143,-1.20748,11.06814,0.31404,-0.27443,9.79778,0.67426,-0.23085,0.08081,-37.986,-9.381,-25.988,104.718,1.604,-1.836,5.0,44.2249,22.9999,120.21971,42.6,NaN,,21.6,,0 / 0,36409,2021-01-13 15:18:52:454
-2.95074,-0.21592,8.92694,0.41832,0.49285,9.78532,1.00392,0.31037,0.60281,-37.14,-8.894,-23.16,104.0,-0.164,-2.845,5.0,44.2249,22.9999,120.21971,42.6,NaN,,21.6,,0 / 0,36509,2021-01-13 15:18:52:554
-2.45735,-0.47219,9.35805,0.13608,1.27728,9.72216,0.61158,0.24021,1.41913,-39.846,-9.138,-22.966,99.425,-5.77,-1.341,5.0,44.2249,22.9999,120.21971,42.6,NaN,,21.6,,0 / 0,36609,2021-01-13 15:18:52:654
-1.60949,0.29424,6.67317,0.08,1.59062,9.67646,0.46379,0.33515,2.45928,-40.551,-7.557,-24.281,95.525,-9.335,-0.474,5.0,42.9832,22.9999,120.21971,42.6,NaN,,21.6,,0 / 0,36708,2021-01-13 15:18:52:753
0.92929,0.14335,7.78688,-0.0483,1.81005,9.63804,-0.05865,0.82677,3.01746,-40.146,5.388,-25.848,75.975,-10.821,-0.812,5.0,42.9832,22.9999,120.21971,42.6,NaN,,21.6,,0 / 0,36809,2021-01-13 15:18:52:854
0.37842,-0.57278,14.87153,0.02472,1.10683,9.74396,-0.92029,0.00459,2.71488,-37.833,14.094,-27.371,64.556,-9.229,0.211,5.0,42.9832,22.9999,120.21971,42.6,NaN,,21.6,,0 / 0,36910,2021-01-13 15:18:52:955
-1.08018,-1.39669,12.93151,0.341,0.59574,9.7826,-0.37853,-0.37374,2.38169,-32.982,28.701,-27.216,46.265,-3.483,-1.996,5.0,44.426,22.9999,120.21971,42.6,NaN,,21.6,,0 / 0,37009,2021-01-13 15:18:53:054
1.06581,-0.55123,9.32213,0.42759,0.53401,9.78276,0.45687,0.23473,2.18699,-28.761,34.084,-26.541,37.844,-2.738,-3.204,5.0,44.426,22.9999,120.21971,42.6,NaN,,21.6,,0 / 0,37109,2021-01-13 15:18:53:154
1.08497,0.36369,9.98556,0.32498,0.9636,9.75378,0.47766,0.26209,1.77376,-18.94,38.942,-28.145,23.566,-4.43,-2.168,5.0,44.426,22.9999,120.21971,42.6,NaN,,21.6,,0 / 0,37209,2021-01-13 15:18:53:254
-0.0479,1.34568,8.68743,0.18865,1.13393,9.73905,0.2162,0.5436,0.65897,-15.205,40.531,-30.539,17.987,-6.64,-1.11,5.0,44.426,22.9999,120.21971,42.6,NaN,,21.6,,0 / 0,37309,2021-01-13 15:18:53:354
-0.85744,2.21269,8.41678,-0.28849,1.43437,9.69689,0.2552,0.38843,0.47198,-9.063,41.107,-32.324,11.618,-7.264,0.344,5.0,44.1167,22.9999,120.21971,42.6,NaN,,21.6,,0 / 0,37409,2021-01-13 15:18:53:454
0.56524,2.44741,7.01566,-0.5597,1.39329,9.69102,-0.15257,0.40786,0.30209,-8.333,40.31,-33.658,11.709,-8.522,2.087,5.0,44.1167,22.9999,120.21971,42.6,NaN,,21.6,,0 / 0,37509,2021-01-13 15:18:53:554
-0.23232,2.41628,7.25278,-0.65306,1.37516,9.68777,-0.11081,0.00546,0.09763,-4.369,39.821,-31.564,7.94,-8.061,3.857,5.0,44.1167,22.9999,120.21971,42.6,NaN,,21.6,,0 / 0,37609,2021-01-13 15:18:53:654
-0.5868,0.93851,13.53986,-0.49756,0.66583,9.77136,-0.81092,-0.18344,0.04172,-3.789,40.707,-31.814,7.508,-7.03,3.371,5.0,43.3783,22.9999,120.21971,42.6,NaN,,21.6,,0 / 0,37709,2021-01-13 15:18:53:754
0.91253,-0.08419,14.71585,-0.35257,0.25457,9.797,-0.1478,-0.08128,0.06348,-4.171,44.881,-27.855,6.536,-1.78,2.571,5.0,43.3783,22.9999,120.21971,42.6,NaN,,21.6,,0 / 0,37810,2021-01-13 15:18:53:855
0.96282,-0.22071,10.53164,-0.2277,0.3116,9.79905,0.78639,-0.1979,-0.31311,-7.171,43.485,-28.428,9.892,-1.821,1.331,5.0,43.3783,22.9999,120.21971,42.6,NaN,,21.6,,0 / 0,37911,2021-01-13 15:18:53:956
0.27304,0.69182,8.74731,-0.0696,1.0947,9.74511,0.60756,-0.0336,-0.40072,-8.648,40.227,-32.127,12.489,-4.345,0.663,5.0,44.3841,22.9999,120.21971,42.6,NaN,,21.6,,0 / 0,38009,2021-01-13 15:18:54:054
-0.13173,2.11689,6.52467,-0.15504,1.82843,9.63344,0.68693,0.12358,-0.37085,-7.789,40.397,-32.53,10.685,-8.486,0.661,5.0,44.3841,22.9999,120.21971,42.6,NaN,,21.6,,0 / 0,38109,2021-01-13 15:18:54:154
-0.54608,2.11929,5.97859,-0.28069,2.24344,9.54246,0.47122,0.11004,-0.41729,-9.091,35.166,-32.867,13.486,-13.225,1.685,5.0,44.3841,22.9999,120.21971,42.6,NaN,,21.6,,0 / 0,38210,2021-01-13 15:18:54:255
-0.23951,2.67016,8.21081,-0.42055,2.21427,9.54414,-0.23171,-0.05818,0.26327,-9.639,33.892,-34.047,15.631,-13.606,2.465,5.0,44.2402,22.9999,120.21971,42.6,NaN,,21.6,,0 / 0,38310,2021-01-13 15:18:54:355
-0.50776,2.85458,11.22861,-0.24726,1.77895,9.64078,-0.5113,-0.06551,0.46033,-9.328,35.824,-32.93,13.648,-12.314,2.147,5.0,44.2402,22.9999,120.21971,42.6,NaN,,21.6,,0 / 0,38410,2021-01-13 15:18:54:455
1.82745,-0.02431,14.51705,-0.26601,1.33689,9.71145,-0.91426,-0.49137,0.37024,-6.05,38.71,-30.769,9.08,-7.835,1.569,5.0,44.2402,22.9999,120.21971,42.6,NaN,,21.6,,0 / 0,38510,2021-01-13 15:18:54:555
0.75684,-0.2734,13.4728,0.31822,0.48462,9.7895,-0.28342,-0.32088,0.26956,-7.503,41.558,-28.882,10.061,-4.628,-0.31,5.0,44.2402,22.9999,120.21971,42.6,NaN,,21.6,,0 / 0,38609,2021-01-13 15:18:54:654
1.06102,0.45471,9.1904,0.64576,1.59837,9.65394,0.87142,-0.22692,-0.27205,-5.856,40.525,-30.848,5.8,-5.693,-2.835,5.0,44.3163,22.9999,120.21971,42.6,NaN,,21.6,,0 / 0,38709,2021-01-13 15:18:54:754
0.73768,1.30735,6.64203,0.69138,1.95651,9.5846,0.64534,-0.08712,-0.55736,-10.392,34.461,-33.849,10.6,-11.508,-4.126,5.0,44.3163,22.9999,120.21971,42.6,NaN,,21.6,,0 / 0,38809,2021-01-13 15:18:54:854
-0.23711,2.6007,5.28163,0.20287,2.59585,9.45467,0.285,0.32877,-0.62529,-10.223,34.264,-34.294,10.756,-13.913,-3.596,5.0,44.3163,22.9999,120.21971,42.6,NaN,,21.6,,0 / 0,38908,2021-01-13 15:18:54:953
-0.11257,2.4067,8.38086,-0.03855,2.55911,9.46678,-0.27817,-0.12163,-0.63623,-9.56,32.255,-36.153,13.882,-16.367,0.148,5.0,43.8687,22.9999,120.21971,42.6,NaN,,21.6,,0 / 0,39009,2021-01-13 15:18:55:054
-0.47423,2.46657,11.2837,-0.05736,2.1199,9.57461,-0.50223,-0.16751,-0.68165,-13.768,34.092,-34.153,19.314,-12.484,0.343,5.0,43.8687,22.9999,120.21971,42.6,NaN,,21.6,,0 / 0,39110,2021-01-13 15:18:55:155
0.35447,2.36119,11.64535,-0.07839,1.69916,9.65801,-0.07961,-0.05677,-0.67949,-14.272,33.69,-33.395,19.591,-10.818,0.153,5.0,43.8687,22.9999,120.21971,42.6,NaN,,21.6,,0 / 0,39209,2021-01-13 15:18:55:254
2.12204,-0.68056,11.12562,-0.25562,1.39584,9.70344,-0.23062,-0.15204,-0.93631,-15.833,33.468,-33.461,23.445,-10.43,1.117,5.0,44.7289,22.9999,120.21971,42.6,NaN,,21.6,,0 / 0,39309,2021-01-13 15:18:55:354
3.24773,1.08222,9.76761,-0.12462,1.57675,9.67826,0.4499,-0.35073,-0.98911,-20.345,30.147,-32.706,30.355,-9.252,0.738,5.0,44.7289,22.9999,120.21971,42.6,NaN,,21.6,,0 / 0,39409,2021-01-13 15:18:55:454
1.82026,0.62955,8.92694,6.4E-4,2.04195,9.59171,0.09962,-0.29381,-1.86311,-21.314,28.377,-32.882,32.186,-10.427,0.147,5.0,44.7289,22.9999,120.21971,42.6,NaN,,21.6,,0 / 0,39509,2021-01-13 15:18:55:554
0.76882,0.0667,10.98192,-0.07293,1.8233,9.63538,-0.24475,-0.27909,-2.04129,-29.278,22.251,-29.953,46.482,-11.763,0.194,5.0,43.9048,22.9999,120.21971,42.6,NaN,,21.6,,0 / 0,39609,2021-01-13 15:18:55:654
1.30771,1.67141,8.3114,-0.09134,1.80281,9.63908,0.31719,-0.17239,-1.59708,-32.044,19.136,-30.15,53.218,-10.593,0.543,5.0,43.9048,22.9999,120.21971,42.6,NaN,,21.6,,0 / 0,39709,2021-01-13 15:18:55:754
-0.10538,1.41513,8.53894,-0.29514,2.03574,9.58849,0.12844,-0.0844,-1.89225,-34.625,11.136,-31.119,64.542,-11.533,0.827,5.0,43.9048,22.9999,120.21971,42.6,NaN,,21.6,,0 / 0,39809,2021-01-13 15:18:55:854
-1.0203,2.15521,6.8025,-0.58228,2.13773,9.55309,-0.07293,-0.20817,-1.58465,-35.534,6.207,-30.019,72.262,-12.401,2.621,5.0,43.9048,22.9999,120.21971,42.6,NaN,,21.6,,0 / 0,39909,2021-01-13 15:18:55:954
-2.89805,1.2379,10.96515,-0.59952,1.96805,9.58842,-0.31256,-0.36171,-1.3891,-37.121,-0.682,-28.542,83.57,-11.577,3.578,5.0,44.3829,22.9999,120.21971,42.6,NaN,,21.6,,0 / 0,40009,2021-01-13 15:18:56:054
-0.28501,1.37202,14.69908,-0.78384,1.54459,9.65247,-0.69226,-0.88344,-0.23127,-37.086,-3.403,-28.874,87.535,-10.006,3.618,5.0,44.3829,22.9999,120.21971,42.6,NaN,,21.6,,0 / 0,40109,2021-01-13 15:18:56:154
0.43351,1.34568,13.34107,0.09965,0.79702,9.7737,-0.54273,-0.56552,0.05124,-39.579,-3.659,-27.477,91.625,-6.203,1.206,5.0,44.3829,22.9999,120.21971,42.6,NaN,,21.6,,0 / 0,40209,2021-01-13 15:18:56:254
0.03832,0.95288,9.96161,0.40864,1.23464,9.72003,0.38652,-0.22588,-0.39643,-40.871,-3.308,-26.295,89.266,-7.233,-2.407,5.0,44.6281,22.9999,120.21971,42.6,NaN,,21.6,,0 / 0,40309,2021-01-13 15:18:56:354
-0.06227,1.72649,7.08273,0.54621,1.8005,9.62446,0.62463,-0.1027,-0.43654,-40.996,-7.156,-24.564,94.124,-8.609,-3.07,5.0,44.6281,22.9999,120.21971,42.6,NaN,,21.6,,0 / 0,40409,2021-01-13 15:18:56:454
-0.68978,2.77793,4.57268,0.12397,2.53078,9.47366,0.47366,0.27328,-0.34216,-41.528,-11.193,-22.036,97.684,-12.619,-2.508,5.0,44.6281,22.9999,120.21971,42.6,NaN,,21.6,,0 / 0,40513,2021-01-13 15:18:56:558
-1.00593,2.19114,6.73065,-0.02028,2.57527,9.46245,-0.24638,0.0722,-0.36789,-40.452,-14.281,-23.889,100.231,-15.225,0.123,5.0,44.473,22.9999,120.21971,42.6,NaN,,21.6,,0 / 0,40610,2021-01-13 15:18:56:655
-0.12454,1.88696,12.60578,0.07742,1.7955,9.64057,-0.77949,0.21873,0.01031,-42.083,-13.025,-22.719,99.626,-13.852,0.078,5.0,44.473,22.9999,120.21971,42.6,NaN,,21.6,,0 / 0,40709,2021-01-13 15:18:56:754
0.96522,-0.40513,16.86663,0.1376,0.89388,9.76486,-0.81703,-0.28303,-0.16352,-40.706,-11.04,-25.628,99.953,-8.181,0.28,5.0,44.473,22.9999,120.21971,42.6,NaN,,21.6,,0 / 0,40810,2021-01-13 15:18:56:855
1.52806,1.08461,9.73887,0.14994,0.58784,9.78787,1.05272,-0.17454,-0.0694,-41.104,-14.17,-23.437,107.171,-3.437,-0.878,5.0,45.9496,22.9999,120.21971,42.6,NaN,,21.6,,0 / 0,40910,2021-01-13 15:18:56:955
0.62751,1.29059,8.63713,0.26343,1.52204,9.68423,0.39675,0.0425,-0.28686,-40.763,-15.598,-22.691,107.746,-7.054,-1.508,5.0,45.9496,22.9999,120.21971,42.6,NaN,,21.6,,0 / 0,41009,2021-01-13 15:18:57:054
0.13891,2.00432,5.07086,0.16847,2.11279,9.57487,1.0645,0.29143,-0.56289,-39.769,-17.358,-19.499,108.886,-9.381,-1.88,5.0,45.9496,22.9999,120.21971,42.6,NaN,,21.6,,0 / 0,41109,2021-01-13 15:18:57:154
-1.54004,2.59591,5.65286,-0.0182,2.63898,9.44488,0.54481,0.14367,-0.30805,-38.687,-22.579,-18.333,113.937,-15.611,0.11,5.0,45.9496,22.9999,120.21971,42.6,NaN,,21.6,,0 / 0,41209,2021-01-13 15:18:57:254
-0.08622,2.12408,10.86216,-0.05348,2.71097,9.42434,-0.64918,0.09685,0.63859,-40.065,-23.62,-18.782,113.791,-16.525,0.559,5.0,44.3899,22.9999,120.21971,42.6,NaN,,21.6,,0 / 0,41309,2021-01-13 15:18:57:354
0.7808,1.02474,15.30983,-0.13824,1.74475,9.6492,-0.92577,0.34038,0.73996,-40.676,-16.616,-22.128,105.547,-13.499,0.183,5.0,44.3899,22.9999,120.21971,42.6,NaN,,21.6,,0 / 0,41409,2021-01-13 15:18:57:454
0.16526,1.66901,11.81061,0.02976,1.00043,9.75544,0.25278,-0.18408,0.39276,-42.575,-14.178,-24.738,104.828,-5.855,-0.175,5.0,44.3899,22.9999,120.21971,42.6,NaN,,21.6,,0 / 0,41509,2021-01-13 15:18:57:554
0.71852,0.75649,10.95557,0.19267,1.31312,9.71643,0.38391,0.01829,0.16001,-42.755,-12.701,-22.095,103.642,-6.498,-0.907,5.0,44.0045,22.9999,120.21971,42.6,NaN,,21.6,,0 / 0,41609,2021-01-13 15:18:57:654
0.16766,2.37317,5.57143,0.08305,2.29184,9.53472,0.88644,0.35408,0.03735,-41.883,-13.875,-19.759,103.822,-9.825,-1.333,5.0,44.0045,22.9999,120.21971,42.6,NaN,,21.6,,0 / 0,41709,2021-01-13 15:18:57:754
0.10538,2.24623,4.75231,-0.10191,2.58826,9.45838,0.32817,0.22555,-0.17329,-43.093,-16.314,-20.413,103.377,-15.303,0.617,5.0,44.0045,22.9999,120.21971,42.6,NaN,,21.6,,0 / 0,41809,2021-01-13 15:18:57:854
-0.07664,1.70494,10.38554,0.00326,2.65222,9.44119,-0.31869,-0.52735,-0.32915,-41.204,-16.263,-18.184,104.37,-16.122,1.093,5.0,44.0701,22.9999,120.21971,42.6,NaN,,21.6,,0 / 0,41909,2021-01-13 15:18:57:954
0.6347,2.62465,12.17227,0.23755,1.95607,9.60665,-0.76307,-0.08045,-0.20498,-42.776,-17.96,-17.991,106.739,-14.113,-1.599,5.0,44.0701,22.9999,120.21971,42.6,NaN,,21.6,,0 / 0,42009,2021-01-13 15:18:58:054
-0.22035,0.3613,15.19486,0.25688,1.29397,9.71751,-0.50861,0.14228,-0.20477,-43.303,-17.235,-18.891,108.477,-7.582,-1.514,5.0,44.0701,22.9999,120.21971,42.6,NaN,,21.6,,0 / 0,42109,2021-01-13 15:18:58:154
1.18317,1.34807,11.1376,0.22573,1.33898,9.71219,0.97212,-0.14507,-0.1372,-42.228,-17.055,-18.836,110.021,-5.079,-0.908,5.0,44.4718,22.9999,120.21971,42.6,NaN,,21.6,,0 / 0,42209,2021-01-13 15:18:58:254
0.03593,1.60913,5.6337,-0.16704,2.41509,9.50315,1.05522,0.32778,-0.30251,-41.255,-20.431,-19.277,111.373,-10.898,-0.567,5.0,44.4718,22.9999,120.21971,42.6,NaN,,21.6,,0 / 0,42309,2021-01-13 15:18:58:354
-0.3401,2.65099,3.92841,-0.367,2.99534,9.33079,0.81147,0.20579,-0.13682,-38.813,-23.478,-16.912,113.434,-17.785,2.252,5.0,44.4718,22.9999,120.21971,42.6,NaN,,21.6,,0 / 0,42409,2021-01-13 15:18:58:454
-0.05988,2.2582,7.81083,-0.59107,3.14365,9.2703,-0.68694,-0.02643,0.33585,-38.243,-24.589,-15.971,115.915,-19.61,2.915,5.0,44.4718,22.9999,120.21971,42.6,NaN,,21.6,,0 / 0,42509,2021-01-13 15:18:58:554
-0.57003,2.66297,11.63338,-0.35144,2.23512,9.54207,-0.94593,-0.10795,0.50281,-40.426,-21.052,-19.591,110.159,-16.538,3.075,5.0,45.7122,22.9999,120.21971,42.6,NaN,,21.6,,0 / 0,42609,2021-01-13 15:18:58:654
0.04072,0.23436,16.72772,-0.35221,1.44525,9.69317,-1.0955,-0.40942,0.3518,-40.978,-19.218,-20.112,111.071,-8.475,2.081,5.0,45.7122,22.9999,120.21971,42.6,NaN,,21.6,,0 / 0,42709,2021-01-13 15:18:58:754
-0.5341,0.50979,11.02742,-0.02937,0.66814,9.78382,0.22608,-0.10492,0.47244,-42.683,-13.869,-22.658,105.825,-4.367,0.362,5.0,45.7122,22.9999,120.21971,42.6,NaN,,21.6,,0 / 0,42809,2021-01-13 15:18:58:854
0.21316,0.68942,8.23955,0.15875,1.20692,9.7308,0.63519,2.2E-4,0.22277,-43.833,-12.863,-23.064,103.668,-5.638,-0.931,5.0,46.4117,22.9999,120.21971,42.6,NaN,,21.6,,0 / 0,42909,2021-01-13 15:18:58:954
-0.67062,2.04264,5.04691,0.15336,1.66267,9.66346,0.89605,0.24268,0.05225,-45.367,-14.549,-20.247,104.159,-9.761,-0.909,5.0,46.4117,22.9999,120.21971,42.6,NaN,,21.6,,0 / 0,43009,2021-01-13 15:18:59:054
-0.81672,1.88936,7.8755,-0.28354,2.33378,9.52069,-0.34923,0.03857,-0.21444,-44.001,-15.698,-18.218,104.918,-12.595,0.384,5.0,46.4117,22.9999,120.21971,42.6,NaN,,21.6,,0 / 0,43109,2021-01-13 15:18:59:154
-1.29813,1.30735,11.1352,-0.12654,1.82388,9.63472,-0.47611,-0.35824,-0.27023,-41.694,-15.504,-20.797,104.985,-12.38,1.839,5.0,46.0789,22.9999,120.21971,42.6,NaN,,21.6,,0 / 0,43210,2021-01-13 15:18:59:255
1.00833,-0.13688,13.46083,-0.18542,1.31129,9.71682,-0.73054,-0.52154,0.05763,-42.671,-15.593,-23.618,106.363,-7.684,1.093,5.0,46.0789,22.9999,120.21971,42.6,NaN,,21.6,,0 / 0,43310,2021-01-13 15:18:59:355
1.06821,-0.72846,15.01763,0.36461,0.43267,9.79031,-0.56982,-0.27932,-0.10411,-42.717,-11.999,-20.72,103.276,-4.992,-0.826,5.0,46.0789,22.9999,120.21971,42.6,NaN,,21.6,,0 / 0,43410,2021-01-13 15:18:59:455
0.41914,1.40555,7.83957,0.25279,1.37598,9.70635,1.04468,0.29984,-0.19982,-43.291,-13.995,-20.29,106.306,-4.284,-2.204,5.0,46.181,22.9999,120.21971,42.6,NaN,,21.6,,0 / 0,43509,2021-01-13 15:18:59:554
-0.49339,2.22467,6.40731,0.09116,1.93573,9.61327,0.88201,0.16852,-0.2924,-41.035,-17.809,-18.022,108.948,-11.384,-0.543,5.0,46.181,22.9999,120.21971,42.6,NaN,,21.6,,0 / 0,43610,2021-01-13 15:18:59:655
0.1437,2.54801,5.72232,-0.09086,2.75082,9.4125,0.19204,0.16499,-0.18506,-42.159,-20.877,-16.955,111.062,-14.258,0.123,5.0,46.181,22.9999,120.21971,42.6,NaN,,21.6,,0 / 0,43710,2021-01-13 15:18:59:755
-0.28262,3.20186,7.68868,-0.33102,2.75479,9.40595,-0.13153,0.22258,0.06841,-39.604,-21.203,-17.702,110.629,-16.699,1.342,5.0,46.181,22.9999,120.21971,42.6,NaN,,21.6,,0 / 0,43809,2021-01-13 15:18:59:854
-0.15808,2.41628,12.75667,-0.17433,2.68668,9.42983,-1.06484,0.1213,0.2298,-41.225,-19.911,-17.756,109.349,-15.9,1.059,5.0,45.4574,22.9999,120.21971,42.6,NaN,,21.6,,0 / 0,43909,2021-01-13 15:18:59:954
-0.47423,1.12293,16.76843,-0.11757,1.36573,9.71037,-1.33942,-0.15674,0.18126,-39.853,-14.979,-21.298,104.163,-12.694,1.18,5.0,45.4574,22.9999,120.21971,42.6,NaN,,21.6,,0 / 0,44009,2021-01-13 15:19:00:054
-0.5341,0.41159,10.7448,-0.07542,1.43809,9.70034,0.7955,-0.16313,0.14858,-41.099,-14.381,-24.944,105.393,-5.936,1.189,5.0,45.4574,22.9999,120.21971,42.6,NaN,,21.6,,0 / 0,44109,2021-01-13 15:19:00:154
0.05748,0.9433,7.39888,-0.09153,1.83008,9.63394,0.7829,0.13098,0.26423,-42.225,-16.253,-19.469,106.192,-10.755,0.544,5.0,44.733,22.9999,120.21971,42.6,NaN,,21.6,,0 / 0,44209,2021-01-13 15:19:00:254
-1.02988,2.37556,5.18103,-0.19714,2.83305,9.38645,0.38334,0.23045,-0.02231,-41.451,-17.945,-17.827,107.942,-13.702,0.74,5.0,44.733,22.9999,120.21971,42.6,NaN,,21.6,,0 / 0,44309,2021-01-13 15:19:00:354
-0.26585,2.29413,5.77741,-0.35907,3.03106,9.31956,0.04809,-0.01526,-0.12525,-40.612,-18.103,-20.632,104.982,-17.836,2.129,5.0,44.733,22.9999,120.21971,42.6,NaN,,21.6,,0 / 0,44410,2021-01-13 15:19:00:455
-1.10892,2.25341,10.59631,-0.2217,2.77266,9.40391,-0.65199,-0.1656,-0.11002,-39.495,-18.137,-19.765,106.745,-16.423,1.351,5.0,45.7011,22.9999,120.21971,42.6,NaN,,21.6,,0 / 0,44509,2021-01-13 15:19:00:554
1.53764,1.48459,13.07522,-0.08568,1.97791,9.60473,-0.90778,-0.1803,0.11845,-40.088,-18.419,-20.103,107.496,-14.204,1.042,5.0,45.7011,22.9999,120.21971,42.6,NaN,,21.6,,0 / 0,44609,2021-01-13 15:19:00:654
1.03467,0.39483,13.58297,0.08372,0.59642,9.78814,0.00886,0.01825,-0.12357,-41.05,-15.493,-21.276,106.766,-6.969,-0.447,5.0,45.7011,22.9999,120.21971,42.6,NaN,,21.6,,0 / 0,44709,2021-01-13 15:19:00:754
0.48141,1.39837,9.53768,0.15945,1.10647,9.74272,1.17212,-0.02225,-0.27567,-39.659,-15.53,-20.288,108.883,-6.478,-0.938,5.0,45.0857,22.9999,120.21971,42.6,NaN,,21.6,,0 / 0,44809,2021-01-13 15:19:00:854
-0.13892,2.51448,4.50562,-0.15472,2.37927,9.51239,0.85041,0.11521,-0.33619,-38.407,-18.946,-20.304,111.737,-10.239,-0.347,5.0,45.0857,22.9999,120.21971,42.6,NaN,,21.6,,0 / 0,44910,2021-01-13 15:19:00:955
-1.06102,2.80907,5.32953,-0.5118,2.74432,9.40091,-0.09058,0.3536,-0.25043,-37.024,-21.086,-17.137,112.539,-16.653,1.611,5.0,45.0857,22.9999,120.21971,42.6,NaN,,21.6,,0 / 0,45009,2021-01-13 15:19:01:054
-0.17963,2.39233,8.91017,-0.58885,2.50795,9.46223,-0.20479,-0.33243,0.17387,-35.154,-21.543,-19.009,115.176,-14.817,3.561,5.0,45.0857,22.9999,120.21971,42.6,NaN,,21.6,,0 / 0,45109,2021-01-13 15:19:01:154
0.27304,2.80907,11.74116,-0.28852,1.98701,9.5989,-0.88802,0.05162,0.31379,-35.368,-19.523,-20.255,112.305,-14.595,2.412,5.0,44.9274,22.9999,120.21971,42.6,NaN,,21.6,,0 / 0,45209,2021-01-13 15:19:01:254
0.91492,0.58644,14.52903,0.03623,1.27028,9.72396,-0.34343,-0.4662,0.17064,-37.448,-16.95,-22.042,109.681,-9.164,1.477,5.0,44.9274,22.9999,120.21971,42.6,NaN,,21.6,,0 / 0,45309,2021-01-13 15:19:01:354
0.02874,0.83552,9.83946,0.21879,1.15363,9.7361,0.47545,-0.1525,0.16923,-38.338,-15.3,-20.157,108.338,-6.756,-1.287,5.0,44.9274,22.9999,120.21971,42.6,NaN,,21.6,,0 / 0,45409,2021-01-13 15:19:01:454
0.44309,0.81636,7.82041,0.39927,1.87836,9.6168,0.42311,0.19968,0.08163,-38.956,-16.688,-19.394,109.441,-9.216,-2.097,5.0,44.7526,22.9999,120.21971,42.6,NaN,,21.6,,0 / 0,45509,2021-01-13 15:19:01:554
-0.51015,3.07013,5.09481,0.07786,2.42287,9.50232,0.55458,0.35445,0.05339,-39.633,-18.676,-18.897,109.848,-12.388,-1.681,5.0,44.7526,22.9999,120.21971,42.6,NaN,,21.6,,0 / 0,45609,2021-01-13 15:19:01:654
-0.02156,2.70369,6.42887,-0.03606,2.60726,9.45364,-0.07156,-0.18016,-0.22688,-38.298,-19.132,-17.19,109.974,-15.418,0.219,5.0,44.7526,22.9999,120.21971,42.6,NaN,,21.6,,0 / 0,45709,2021-01-13 15:19:01:754
0.04311,2.01151,11.41303,0.08785,2.37056,9.51541,-0.53889,-0.17845,-0.20908,-37.344,-19.991,-19.811,110.584,-15.583,0.082,5.0,45.6361,22.9999,120.21971,42.6,NaN,,21.6,,0 / 0,45809,2021-01-13 15:19:01:854
0.67541,0.79481,13.41053,0.28627,1.51879,9.6841,-0.85342,-0.26313,-0.11718,-36.744,-19.064,-19.317,111.765,-11.654,-0.682,5.0,45.6361,22.9999,120.21971,42.6,NaN,,21.6,,0 / 0,45908,2021-01-13 15:19:01:953
0.76163,0.53135,12.18904,0.32483,1.03786,9.74616,-0.2239,0.06923,-0.09081,-37.193,-16.976,-19.752,111.983,-6.075,-1.909,5.0,45.6361,22.9999,120.21971,42.6,NaN,,21.6,,0 / 0,46008,2021-01-13 15:19:02:053
0.98677,1.53489,8.55091,0.25931,1.71276,9.65244,0.9181,0.2458,-0.11204,-36.106,-19.327,-17.606,115.024,-6.987,-1.802,5.0,45.2675,22.9999,120.21971,42.6,NaN,,21.6,,0 / 0,46109,2021-01-13 15:19:02:154
0.0982,2.96236,5.55227,-0.0169,2.66114,9.43867,0.76009,0.18949,-0.25393,-34.502,-21.942,-17.218,116.66,-13.129,-0.714,5.0,45.2675,22.9999,120.21971,42.6,NaN,,21.6,,0 / 0,46209,2021-01-13 15:19:02:254
-0.30178,2.5983,6.37618,-0.30549,2.75739,9.40605,-0.03363,0.08922,-0.1912,-33.727,-23.024,-17.177,116.98,-16.35,1.23,5.0,45.2675,22.9999,120.21971,42.6,NaN,,21.6,,0 / 0,46310,2021-01-13 15:19:02:355
0.40716,2.88332,9.18561,-0.30133,2.81751,9.38835,0.03154,-0.08813,0.06551,-33.617,-22.814,-19.023,116.224,-16.33,1.86,5.0,45.2675,22.9999,120.21971,42.6,NaN,,21.6,,0 / 0,46409,2021-01-13 15:19:02:454
0.20598,2.5049,12.37586,-0.15702,1.91315,9.61694,-1.19303,0.02141,0.37214,-33.148,-21.04,-18.828,114.895,-15.123,0.819,5.0,47.066,22.9999,120.21971,42.6,NaN,,21.6,,0 / 0,46509,2021-01-13 15:19:02:554
-0.24909,1.53968,12.85966,0.0029,1.25838,9.72558,-0.54383,-0.2568,0.2949,-35.485,-17.315,-21.495,112.035,-7.372,-0.017,5.0,47.066,22.9999,120.21971,42.6,NaN,,21.6,,0 / 0,46610,2021-01-13 15:19:02:655
-0.25867,0.82115,10.87174,0.17551,1.62722,9.66911,0.51051,-0.03809,0.11742,-36.597,-15.863,-21.528,109.59,-7.153,-0.56,5.0,47.066,22.9999,120.21971,42.6,NaN,,21.6,,0 / 0,46709,2021-01-13 15:19:02:754
-0.38321,1.42711,7.10428,0.11424,2.0915,9.58034,0.41144,0.11733,0.05544,-36.569,-17.563,-20.19,110.53,-11.019,-1.058,5.0,46.1134,22.9999,120.21971,42.6,NaN,,21.6,,0 / 0,46809,2021-01-13 15:19:02:854
-1.09455,2.23904,5.78938,-0.12423,2.25138,9.54391,0.16907,0.43772,0.09093,-35.962,-18.671,-19.179,111.447,-13.272,0.746,5.0,46.1134,22.9999,120.21971,42.6,NaN,,21.6,,0 / 0,46909,2021-01-13 15:19:02:954
-0.4407,2.1121,7.05878,-0.49564,2.47531,9.47616,0.11995,0.01726,0.06935,-35.168,-17.89,-21.864,109.223,-13.968,2.347,5.0,46.1134,22.9999,120.21971,42.6,NaN,,21.6,,0 / 0,47009,2021-01-13 15:19:03:054
0.03353,1.94924,9.59517,-0.20453,2.2435,9.54438,-0.71909,-0.07817,-0.02413,-34.606,-16.871,-20.209,108.076,-14.787,1.937,5.0,45.7619,22.9999,120.21971,42.6,NaN,,21.6,,0 / 0,47109,2021-01-13 15:19:03:154
1.29334,0.64871,15.69783,-0.12319,1.65154,9.6658,-1.18682,-0.16266,-0.08829,-36.606,-16.682,-23.473,109.169,-9.695,0.73,5.0,45.7619,22.9999,120.21971,42.6,NaN,,21.6,,0 / 0,47209,2021-01-13 15:19:03:254
0.94366,1.21874,11.86091,-0.04279,0.90676,9.76455,0.92037,-0.10658,-0.23873,-34.29,-14.346,-22.912,108.649,-6.031,0.43,5.0,45.7619,22.9999,120.21971,42.6,NaN,,21.6,,0 / 0,47309,2021-01-13 15:19:03:354
0.44309,1.48699,8.66348,-0.05074,1.95451,9.60977,0.86774,0.05789,-0.46641,-35.045,-18.712,-19.612,114.269,-8.665,-0.155,5.0,47.2062,22.9999,120.21971,42.6,NaN,,21.6,,0 / 0,47409,2021-01-13 15:19:03:454
-0.50536,2.48573,5.38222,-0.15223,2.48526,9.48529,0.81048,0.32875,-0.36022,-34.249,-21.313,-18.229,114.869,-14.68,0.919,5.0,47.2062,22.9999,120.21971,42.6,NaN,,21.6,,0 / 0,47509,2021-01-13 15:19:03:554
-1.37957,3.30964,5.36785,-0.65179,3.19864,9.24739,0.19066,0.37448,-0.14617,-32.686,-24.547,-18.751,118.681,-17.683,2.401,5.0,47.2062,22.9999,120.21971,42.6,NaN,,21.6,,0 / 0,47609,2021-01-13 15:19:03:654
-0.10299,3.00547,8.93891,-0.5348,3.08949,9.2919,-0.57541,-0.47077,0.23046,-31.733,-23.755,-18.861,117.642,-18.65,4.585,5.0,47.2062,22.9999,120.21971,42.6,NaN,,21.6,,0 / 0,47709,2021-01-13 15:19:03:754
0.48381,2.4546,12.37346,-0.26445,2.50623,9.4773,-1.34509,-0.01757,0.30998,-34.95,-20.43,-19.716,112.159,-14.807,1.598,5.0,47.1838,22.9999,120.21971,42.6,NaN,,21.6,,0 / 0,47809,2021-01-13 15:19:03:854
1.08258,-0.13448,18.1456,0.05988,1.0775,9.74709,-0.96722,-0.5721,0.15488,-34.556,-17.628,-22.815,111.182,-10.232,1.512,5.0,47.1838,22.9999,120.21971,42.6,NaN,,21.6,,0 / 0,47909,2021-01-13 15:19:03:954
-1.19275,0.2631,8.40241,0.4192,0.93933,9.75256,0.71605,-0.06779,0.10659,-38.238,-13.889,-21.834,108.957,-3.027,-2.297,5.0,47.1838,22.9999,120.21971,42.6,NaN,,21.6,,0 / 0,48009,2021-01-13 15:19:04:054
-0.23711,0.43794,8.61079,0.46405,1.5258,9.6761,0.31037,0.30935,0.08786,-39.386,-16.505,-20.749,109.231,-8.951,-2.746,5.0,46.5725,22.9999,120.21971,42.6,NaN,,21.6,,0 / 0,48109,2021-01-13 15:19:04:154
-0.388,1.35765,6.33546,0.1433,1.8971,9.62034,0.47071,0.26468,0.01665,-39.242,-17.169,-20.209,108.817,-9.969,-1.651,5.0,46.5725,22.9999,120.21971,42.6,NaN,,21.6,,0 / 0,48208,2021-01-13 15:19:04:253
0.21556,1.67141,6.12469,-0.27193,2.33113,9.52168,-0.03036,0.11357,0.02615,-38.61,-19.158,-19.528,109.728,-13.105,0.49,5.0,46.5725,22.9999,120.21971,42.6,NaN,,21.6,,0 / 0,48309,2021-01-13 15:19:04:354
-0.37603,2.08576,7.97849,-0.1948,2.22848,9.54811,-0.21745,-0.20387,-0.11092,-37.935,-17.019,-22.054,106.974,-13.135,1.169,5.0,45.8351,22.9999,120.21971,42.6,NaN,,21.6,,0 / 0,48409,2021-01-13 15:19:04:454
0.02874,1.74326,12.57464,-0.24485,2.01951,9.59333,-0.59346,-0.08559,8.5E-4,-39.396,-16.353,-22.454,105.431,-12.847,1.187,5.0,45.8351,22.9999,120.21971,42.6,NaN,,21.6,,0 / 0,48509,2021-01-13 15:19:04:554
0.27064,-0.68296,15.65711,-0.07871,1.09467,9.74505,-0.93236,-0.21857,-0.31577,-39.428,-15.163,-23.334,105.606,-9.754,1.139,5.0,45.8351,22.9999,120.21971,42.6,NaN,,21.6,,0 / 0,48609,2021-01-13 15:19:04:654
0.47183,0.10502,8.79042,-0.01289,1.39496,9.70692,0.27915,-0.00775,-0.22466,-40.325,-16.663,-23.313,108.717,-8.178,0.076,5.0,46.4181,22.9999,120.21971,42.6,NaN,,21.6,,0 / 0,48710,2021-01-13 15:19:04:755
-0.05748,0.6535,7.25278,-0.12002,1.48423,9.69294,0.23717,0.13913,-0.14395,-37.552,-17.417,-23.348,109.628,-8.178,0.076,5.0,46.4181,22.9999,120.21971,42.6,NaN,,21.6,,0 / 0,48809,2021-01-13 15:19:04:854
-0.05509,-0.03149,10.78313,-0.23349,1.4232,9.70002,-0.33971,1.2E-4,-0.03224,-37.204,-18.569,-22.791,112.097,-9.186,1.112,5.0,46.4181,22.9999,120.21971,42.6,NaN,,21.6,,0 / 0,48909,2021-01-13 15:19:04:954
-0.01916,0.53853,9.43469,-0.21133,1.15056,9.73663,-0.15144,0.04815,0.11826,-37.064,-16.57,-23.665,110.571,-6.925,1.265,5.0,46.4181,22.9999,120.21971,42.6,NaN,,21.6,,0 / 0,49010,2021-01-13 15:19:05:055
0.10538,0.84271,9.2886,-0.22175,1.15692,9.73564,-0.03782,0.10164,0.21706,-38.846,-15.906,-23.639,108.414,-6.775,1.305,5.0,45.9647,22.9999,120.21971,42.6,NaN,,21.6,,0 / 0,49110,2021-01-13 15:19:05:155
0.28501,0.90019,9.89694,-0.24207,1.01753,9.75071,-0.17725,-0.00823,0.10577,-38.967,-15.853,-24.681,108.333,-6.604,1.532,5.0,45.9647,22.9999,120.21971,42.6,NaN,,21.6,,0 / 0,49210,2021-01-13 15:19:05:255
0.3401,1.30256,9.38919,-0.22401,0.99602,9.75337,0.05017,-0.02092,0.04459,-39.364,-13.615,-24.647,106.181,-5.829,1.316,5.0,45.9647,22.9999,120.21971,42.6,NaN,,21.6,,0 / 0,49309,2021-01-13 15:19:05:354
-0.76643,0.8475,9.93766,-0.2051,0.96086,9.75731,-0.06274,-0.0173,-0.0713,-39.811,-14.276,-24.435,105.947,-5.829,1.316,5.0,45.6951,22.9999,120.21971,42.6,NaN,,21.6,,0 / 0,49409,2021-01-13 15:19:05:454